"Time (s)","Acceleration x (m/s^2)","Acceleration y (m/s^2)","Acceleration z (m/s^2)"
0.000000000E0,-2.464830637E0,6.420052052E0,6.683413982E0
9.942306000E-3,-2.493561029E0,6.410475254E0,6.688202381E0
1.998186400E-2,-2.464830637E0,6.410475254E0,6.692990780E0
2.999396500E-2,-2.460042238E0,6.415263653E0,6.702567577E0
3.992893500E-2,-2.450465441E0,6.420052052E0,6.707355976E0
5.008927100E-2,-2.460042238E0,6.420052052E0,6.683413982E0
6.010504200E-2,-2.474407434E0,6.410475254E0,6.692990780E0
7.010442300E-2,-2.483984232E0,6.405686855E0,6.726509571E0
8.014933800E-2,-2.479195833E0,6.410475254E0,6.688202381E0
9.017435400E-2,-2.498349428E0,6.381744862E0,6.664260387E0
1.002249650E-1,-2.469619036E0,6.396110058E0,6.697779179E0
1.102481960E-1,-2.488772631E0,6.396110058E0,6.716932774E0
1.202943520E-1,-2.464830637E0,6.415263653E0,6.688202381E0
1.303122410E-1,-2.474407434E0,6.400898457E0,6.702567577E0
1.403696580E-1,-2.474407434E0,6.415263653E0,6.683413982E0
1.503995880E-1,-2.469619036E0,6.410475254E0,6.692990780E0
1.604239400E-1,-2.479195833E0,6.420052052E0,6.716932774E0
1.704677480E-1,-2.483984232E0,6.400898457E0,6.726509571E0
1.804140710E-1,-2.469619036E0,6.410475254E0,6.673837185E0
1.904209110E-1,-2.460042238E0,6.420052052E0,6.697779179E0
2.004383140E-1,-2.479195833E0,6.410475254E0,6.688202381E0
2.105369610E-1,-2.464830637E0,6.410475254E0,6.745663166E0
2.205987790E-1,-2.450465441E0,6.400898457E0,6.697779179E0
2.305387480E-1,-2.464830637E0,6.420052052E0,6.716932774E0
2.406287840E-1,-2.469619036E0,6.410475254E0,6.688202381E0
2.505664140E-1,-2.445677042E0,6.415263653E0,6.697779179E0
2.605962310E-1,-2.479195833E0,6.410475254E0,6.692990780E0
2.706136800E-1,-2.464830637E0,6.405686855E0,6.688202381E0
2.806370940E-1,-2.483984232E0,6.391321659E0,6.688202381E0
2.906169690E-1,-2.464830637E0,6.396110058E0,6.707355976E0
3.006873650E-1,-2.455253839E0,6.386533260E0,6.683413982E0
3.107140650E-1,-2.469619036E0,6.443994045E0,6.707355976E0
3.206944690E-1,-2.474407434E0,6.415263653E0,6.692990780E0
3.307625340E-1,-2.483984232E0,6.391321659E0,6.712144375E0
3.407598320E-1,-2.474407434E0,6.405686855E0,6.669048786E0
3.507760770E-1,-2.483984232E0,6.429628849E0,6.716932774E0
3.607963800E-1,-2.469619036E0,6.396110058E0,6.716932774E0
3.708240470E-1,-2.450465441E0,6.405686855E0,6.692990780E0
3.808545820E-1,-2.488772631E0,6.410475254E0,6.697779179E0
3.909273820E-1,-2.460042238E0,6.420052052E0,6.716932774E0
4.008977950E-1,-2.464830637E0,6.410475254E0,6.697779179E0
4.110366130E-1,-2.469619036E0,6.429628849E0,6.678625584E0
4.210461020E-1,-2.464830637E0,6.415263653E0,6.659471989E0
4.310278550E-1,-2.488772631E0,6.400898457E0,6.688202381E0
4.410007990E-1,-2.450465441E0,6.396110058E0,6.712144375E0
4.510215490E-1,-2.469619036E0,6.415263653E0,6.697779179E0
4.611769760E-1,-2.455253839E0,6.400898457E0,6.688202381E0
4.711350370E-1,-2.474407434E0,6.405686855E0,6.697779179E0
4.811598250E-1,-2.469619036E0,6.410475254E0,6.692990780E0
4.911874600E-1,-2.479195833E0,6.400898457E0,6.731297970E0
5.011453020E-1,-2.464830637E0,6.420052052E0,6.683413982E0
5.111689250E-1,-2.479195833E0,6.400898457E0,6.688202381E0
5.212024320E-1,-2.464830637E0,6.420052052E0,6.707355976E0
5.312268460E-1,-2.455253839E0,6.415263653E0,6.692990780E0
5.412537910E-1,-2.469619036E0,6.405686855E0,6.707355976E0
5.512660150E-1,-2.469619036E0,6.410475254E0,6.697779179E0
5.612960290E-1,-2.469619036E0,6.400898457E0,6.702567577E0
5.713953300E-1,-2.455253839E0,6.396110058E0,6.707355976E0
5.814229440E-1,-2.460042238E0,6.396110058E0,6.688202381E0
5.914759840E-1,-2.455253839E0,6.400898457E0,6.692990780E0
6.014576680E-1,-2.474407434E0,6.391321659E0,6.683413982E0
6.114812680E-1,-2.464830637E0,6.400898457E0,6.707355976E0
6.214441160E-1,-2.464830637E0,6.415263653E0,6.683413982E0
6.315173820E-1,-2.474407434E0,6.420052052E0,6.692990780E0
6.415821680E-1,-2.474407434E0,6.396110058E0,6.712144375E0
6.515207040E-1,-2.474407434E0,6.400898457E0,6.707355976E0
6.615406370E-1,-2.460042238E0,6.420052052E0,6.683413982E0
6.715798640E-1,-2.474407434E0,6.405686855E0,6.697779179E0
6.815999000E-1,-2.455253839E0,6.420052052E0,6.673837185E0
6.916218330E-1,-2.474407434E0,6.424840450E0,6.688202381E0
7.017117260E-1,-2.460042238E0,6.410475254E0,6.688202381E0
7.116765620E-1,-2.464830637E0,6.434417248E0,6.697779179E0
7.216998180E-1,-2.479195833E0,6.420052052E0,6.697779179E0
7.317448890E-1,-2.469619036E0,6.405686855E0,6.683413982E0
7.418300360E-1,-2.479195833E0,6.410475254E0,6.712144375E0
7.518455310E-1,-2.469619036E0,6.405686855E0,6.702567577E0
7.618213690E-1,-2.483984232E0,6.405686855E0,6.702567577E0
7.718596360E-1,-2.469619036E0,6.420052052E0,6.716932774E0
7.819345430E-1,-2.464830637E0,6.396110058E0,6.716932774E0
7.919047080E-1,-2.469619036E0,6.396110058E0,6.702567577E0
8.019708890E-1,-2.464830637E0,6.424840450E0,6.707355976E0
8.120564950E-1,-2.479195833E0,6.405686855E0,6.716932774E0
8.220332200E-1,-2.474407434E0,6.396110058E0,6.697779179E0
8.320591300E-1,-2.474407434E0,6.376956463E0,6.716932774E0
8.420287180E-1,-2.464830637E0,6.405686855E0,6.707355976E0
8.521236520E-1,-2.460042238E0,6.405686855E0,6.692990780E0
8.621538780E-1,-2.493561029E0,6.396110058E0,6.692990780E0
8.721784880E-1,-2.479195833E0,6.396110058E0,6.697779179E0
8.822646850E-1,-2.488772631E0,6.405686855E0,6.688202381E0
8.921873200E-1,-2.460042238E0,6.429628849E0,6.692990780E0
9.022377590E-1,-2.450465441E0,6.410475254E0,6.707355976E0
9.122827070E-1,-2.469619036E0,6.420052052E0,6.697779179E0
9.222937740E-1,-2.464830637E0,6.420052052E0,6.716932774E0
9.322826090E-1,-2.469619036E0,6.410475254E0,6.716932774E0
9.422940520E-1,-2.474407434E0,6.415263653E0,6.702567577E0
9.523106860E-1,-2.488772631E0,6.400898457E0,6.692990780E0
9.623459360E-1,-2.474407434E0,6.420052052E0,6.707355976E0
9.723608980E-1,-2.488772631E0,6.400898457E0,6.697779179E0
9.823868520E-1,-2.469619036E0,6.410475254E0,6.721721172E0
9.924204470E-1,-2.474407434E0,6.391321659E0,6.702567577E0
1.002497738E0,-2.474407434E0,6.386533260E0,6.659471989E0
1.012530540E0,-2.464830637E0,6.405686855E0,6.716932774E0
1.022496393E0,-2.464830637E0,6.396110058E0,6.688202381E0
1.032511098E0,-2.455253839E0,6.415263653E0,6.654683590E0
1.042546282E0,-2.450465441E0,6.405686855E0,6.707355976E0
1.052572102E0,-2.474407434E0,6.415263653E0,6.697779179E0
1.062602103E0,-2.474407434E0,6.429628849E0,6.697779179E0
1.072616991E0,-2.464830637E0,6.420052052E0,6.678625584E0
1.082724923E0,-2.464830637E0,6.405686855E0,6.683413982E0
1.092679865E0,-2.474407434E0,6.391321659E0,6.712144375E0
1.102698664E0,-2.474407434E0,6.410475254E0,6.678625584E0
1.112723181E0,-2.464830637E0,6.410475254E0,6.702567577E0
1.122762371E0,-2.483984232E0,6.420052052E0,6.712144375E0
1.132798202E0,-2.474407434E0,6.405686855E0,6.692990780E0
1.142865136E0,-2.479195833E0,6.410475254E0,6.692990780E0
1.152826472E0,-2.474407434E0,6.405686855E0,6.721721172E0
1.162881092E0,-2.469619036E0,6.410475254E0,6.683413982E0
1.172884478E0,-2.469619036E0,6.405686855E0,6.692990780E0
1.182926517E0,-2.479195833E0,6.405686855E0,6.702567577E0
1.192923854E0,-2.474407434E0,6.396110058E0,6.707355976E0
1.202964494E0,-2.464830637E0,6.420052052E0,6.697779179E0
1.212985777E0,-2.460042238E0,6.381744862E0,6.712144375E0
1.223015427E0,-2.455253839E0,6.410475254E0,6.707355976E0
1.233044293E0,-2.469619036E0,6.396110058E0,6.683413982E0
1.243077291E0,-2.464830637E0,6.405686855E0,6.702567577E0
1.253091120E0,-2.469619036E0,6.420052052E0,6.716932774E0
1.263125103E0,-2.483984232E0,6.405686855E0,6.692990780E0
1.273145735E0,-2.460042238E0,6.415263653E0,6.692990780E0
1.283195278E0,-2.464830637E0,6.415263653E0,6.673837185E0
1.293195496E0,-2.464830637E0,6.396110058E0,6.683413982E0
1.303275673E0,-2.464830637E0,6.400898457E0,6.692990780E0
1.313254755E0,-2.474407434E0,6.405686855E0,6.712144375E0
1.323286119E0,-2.460042238E0,6.391321659E0,6.697779179E0
1.333313051E0,-2.483984232E0,6.400898457E0,6.673837185E0
1.343334280E0,-2.469619036E0,6.396110058E0,6.716932774E0
1.353360208E0,-2.464830637E0,6.410475254E0,6.697779179E0
1.363388184E0,-2.474407434E0,6.405686855E0,6.716932774E0
1.373410290E0,-2.469619036E0,6.415263653E0,6.683413982E0
1.383464584E0,-2.479195833E0,6.391321659E0,6.697779179E0
1.393479302E0,-2.455253839E0,6.386533260E0,6.697779179E0
1.403557841E0,-2.464830637E0,6.396110058E0,6.712144375E0
1.413524560E0,-2.469619036E0,6.405686855E0,6.683413982E0
1.423551806E0,-2.474407434E0,6.386533260E0,6.678625584E0
1.433586451E0,-2.474407434E0,6.396110058E0,6.692990780E0
1.443725812E0,-2.488772631E0,6.400898457E0,6.702567577E0
1.453651661E0,-2.479195833E0,6.405686855E0,6.678625584E0
1.463778198E0,-2.488772631E0,6.396110058E0,6.697779179E0
1.473757668E0,-2.469619036E0,6.410475254E0,6.721721172E0
1.483852060E0,-2.464830637E0,6.424840450E0,6.697779179E0
1.493819853E0,-2.488772631E0,6.410475254E0,6.702567577E0
1.503773048E0,-2.460042238E0,6.420052052E0,6.673837185E0
1.513921434E0,-2.474407434E0,6.396110058E0,6.716932774E0
1.523829693E0,-2.460042238E0,6.410475254E0,6.688202381E0
1.533912204E0,-2.479195833E0,6.415263653E0,6.683413982E0
1.543901825E0,-2.469619036E0,6.410475254E0,6.688202381E0
1.554011834E0,-2.483984232E0,6.386533260E0,6.702567577E0
1.563980711E0,-2.479195833E0,6.420052052E0,6.683413982E0
1.574069396E0,-2.469619036E0,6.400898457E0,6.740874767E0
1.584066290E0,-2.469619036E0,6.400898457E0,6.692990780E0
1.594041928E0,-2.488772631E0,6.410475254E0,6.678625584E0
1.604018615E0,-2.464830637E0,6.405686855E0,6.688202381E0
1.614039219E0,-2.464830637E0,6.405686855E0,6.673837185E0
1.624083156E0,-2.479195833E0,6.405686855E0,6.726509571E0
1.634113766E0,-2.479195833E0,6.376956463E0,6.707355976E0
1.644115371E0,-2.460042238E0,6.410475254E0,6.697779179E0
1.654138486E0,-2.479195833E0,6.405686855E0,6.692990780E0
1.664184774E0,-2.479195833E0,6.405686855E0,6.692990780E0
1.674204757E0,-2.469619036E0,6.410475254E0,6.740874767E0
1.684221195E0,-2.455253839E0,6.429628849E0,6.702567577E0
1.694244708E0,-2.464830637E0,6.405686855E0,6.692990780E0
1.704383532E0,-2.464830637E0,6.391321659E0,6.692990780E0
1.714311479E0,-2.460042238E0,6.396110058E0,6.702567577E0
1.724333957E0,-2.488772631E0,6.405686855E0,6.716932774E0
1.734350756E0,-2.474407434E0,6.420052052E0,6.692990780E0
1.744460550E0,-2.479195833E0,6.400898457E0,6.697779179E0
1.754431969E0,-2.469619036E0,6.420052052E0,6.712144375E0
1.764442510E0,-2.460042238E0,6.415263653E0,6.692990780E0
1.774479207E0,-2.464830637E0,6.420052052E0,6.702567577E0
1.784519371E0,-2.464830637E0,6.405686855E0,6.697779179E0
1.794629134E0,-2.464830637E0,6.405686855E0,6.712144375E0
1.804561570E0,-2.479195833E0,6.429628849E0,6.683413982E0
1.814579041E0,-2.464830637E0,6.405686855E0,6.702567577E0
1.824680995E0,-2.450465441E0,6.415263653E0,6.721721172E0
1.834752393E0,-2.479195833E0,6.396110058E0,6.688202381E0
1.844679709E0,-2.469619036E0,6.405686855E0,6.669048786E0
1.854694452E0,-2.469619036E0,6.420052052E0,6.683413982E0
1.864710233E0,-2.450465441E0,6.410475254E0,6.702567577E0
1.874739333E0,-2.479195833E0,6.400898457E0,6.707355976E0
1.884760741E0,-2.445677042E0,6.410475254E0,6.697779179E0
1.894792498E0,-2.455253839E0,6.410475254E0,6.692990780E0
1.904832884E0,-2.469619036E0,6.396110058E0,6.673837185E0
1.914846766E0,-2.455253839E0,6.376956463E0,6.683413982E0
1.924877083E0,-2.469619036E0,6.424840450E0,6.692990780E0
1.934896306E0,-2.479195833E0,6.415263653E0,6.673837185E0
1.944934122E0,-2.479195833E0,6.396110058E0,6.707355976E0
1.954962344E0,-2.464830637E0,6.396110058E0,6.678625584E0
1.964982886E0,-2.455253839E0,6.391321659E0,6.673837185E0
1.975009690E0,-2.469619036E0,6.391321659E0,6.716932774E0
1.985081272E0,-2.464830637E0,6.405686855E0,6.678625584E0
1.995119424E0,-2.479195833E0,6.396110058E0,6.669048786E0
2.005168973E0,-2.464830637E0,6.410475254E0,6.683413982E0
2.015174778E0,-2.474407434E0,6.420052052E0,6.688202381E0
2.025223964E0,-2.469619036E0,6.391321659E0,6.707355976E0
2.035294338E0,-2.464830637E0,6.400898457E0,6.678625584E0
2.045211765E0,-2.464830637E0,6.415263653E0,6.716932774E0
2.055232170E0,-2.483984232E0,6.410475254E0,6.721721172E0
2.065278635E0,-2.488772631E0,6.415263653E0,6.692990780E0
2.075298004E0,-2.479195833E0,6.400898457E0,6.712144375E0
2.085310087E0,-2.455253839E0,6.415263653E0,6.702567577E0
2.095450497E0,-2.474407434E0,6.405686855E0,6.697779179E0
2.105400674E0,-2.460042238E0,6.415263653E0,6.688202381E0
2.115403549E0,-2.464830637E0,6.405686855E0,6.697779179E0
2.125429690E0,-2.474407434E0,6.420052052E0,6.688202381E0
2.135501779E0,-2.469619036E0,6.386533260E0,6.669048786E0
2.145506674E0,-2.455253839E0,6.410475254E0,6.688202381E0
2.155562997E0,-2.479195833E0,6.410475254E0,6.688202381E0
2.165547269E0,-2.498349428E0,6.405686855E0,6.716932774E0
2.175568601E0,-2.479195833E0,6.396110058E0,6.688202381E0
2.185672116E0,-2.474407434E0,6.391321659E0,6.683413982E0
2.195641125E0,-2.469619036E0,6.391321659E0,6.692990780E0
2.205650760E0,-2.469619036E0,6.410475254E0,6.712144375E0
2.215759749E0,-2.469619036E0,6.405686855E0,6.673837185E0
2.225734521E0,-2.474407434E0,6.400898457E0,6.654683590E0
2.235824811E0,-2.455253839E0,6.424840450E0,6.669048786E0
2.245767807E0,-2.460042238E0,6.405686855E0,6.688202381E0
2.255901065E0,-2.464830637E0,6.400898457E0,6.678625584E0
2.265853965E0,-2.464830637E0,6.429628849E0,6.697779179E0
2.275860510E0,-2.474407434E0,6.405686855E0,6.683413982E0
2.285949879E0,-2.464830637E0,6.400898457E0,6.707355976E0
2.295973935E0,-2.479195833E0,6.410475254E0,6.707355976E0
2.306020840E0,-2.469619036E0,6.396110058E0,6.697779179E0
2.315970925E0,-2.479195833E0,6.386533260E0,6.707355976E0
2.325996739E0,-2.460042238E0,6.410475254E0,6.673837185E0
2.336035584E0,-2.464830637E0,6.410475254E0,6.692990780E0
2.346075507E0,-2.469619036E0,6.391321659E0,6.692990780E0
2.356091561E0,-2.474407434E0,6.415263653E0,6.731297970E0
2.366119578E0,-2.488772631E0,6.415263653E0,6.707355976E0
2.376155857E0,-2.469619036E0,6.405686855E0,6.692990780E0
2.386267923E0,-2.455253839E0,6.420052052E0,6.697779179E0
2.396270480E0,-2.464830637E0,6.386533260E0,6.678625584E0
2.406223699E0,-2.479195833E0,6.400898457E0,6.673837185E0
2.416283758E0,-2.474407434E0,6.405686855E0,6.702567577E0
2.426350282E0,-2.488772631E0,6.410475254E0,6.659471989E0
2.436319764E0,-2.474407434E0,6.400898457E0,6.659471989E0
2.446328788E0,-2.469619036E0,6.415263653E0,6.697779179E0
2.456362524E0,-2.479195833E0,6.400898457E0,6.678625584E0
2.466458291E0,-2.445677042E0,6.415263653E0,6.697779179E0
2.476482190E0,-2.483984232E0,6.429628849E0,6.697779179E0
2.486504244E0,-2.479195833E0,6.405686855E0,6.707355976E0
2.496461345E0,-2.474407434E0,6.410475254E0,6.740874767E0
2.506501893E0,-2.464830637E0,6.424840450E0,6.716932774E0
2.516570721E0,-2.450465441E0,6.400898457E0,6.702567577E0
2.526591095E0,-2.464830637E0,6.410475254E0,6.697779179E0
2.536595309E0,-2.460042238E0,6.439205647E0,6.707355976E0
2.546612746E0,-2.469619036E0,6.420052052E0,6.688202381E0
2.556669426E0,-2.455253839E0,6.424840450E0,6.688202381E0
2.566718180E0,-2.469619036E0,6.400898457E0,6.692990780E0
2.576690111E0,-2.469619036E0,6.410475254E0,6.702567577E0
2.586724947E0,-2.483984232E0,6.396110058E0,6.664260387E0
2.596719948E0,-2.460042238E0,6.405686855E0,6.678625584E0
2.606809403E0,-2.450465441E0,6.410475254E0,6.678625584E0
2.616837112E0,-2.483984232E0,6.415263653E0,6.702567577E0
2.626881249E0,-2.474407434E0,6.415263653E0,6.707355976E0
2.636900338E0,-2.460042238E0,6.415263653E0,6.702567577E0
2.646886733E0,-2.488772631E0,6.396110058E0,6.683413982E0
2.656897990E0,-2.464830637E0,6.405686855E0,6.721721172E0
2.666999852E0,-2.474407434E0,6.405686855E0,6.702567577E0
2.677003841E0,-2.469619036E0,6.400898457E0,6.697779179E0
2.686986547E0,-2.460042238E0,6.396110058E0,6.688202381E0
2.696991085E0,-2.464830637E0,6.429628849E0,6.678625584E0
2.707048971E0,-2.488772631E0,6.381744862E0,6.673837185E0
2.717051190E0,-2.483984232E0,6.381744862E0,6.707355976E0
2.727091047E0,-2.464830637E0,6.400898457E0,6.692990780E0
2.737102997E0,-2.469619036E0,6.400898457E0,6.712144375E0
2.747157864E0,-2.469619036E0,6.405686855E0,6.712144375E0
2.757160646E0,-2.455253839E0,6.420052052E0,6.702567577E0
2.767214662E0,-2.460042238E0,6.391321659E0,6.664260387E0
2.777212204E0,-2.483984232E0,6.420052052E0,6.692990780E0
2.787263499E0,-2.479195833E0,6.415263653E0,6.683413982E0
2.797379938E0,-2.464830637E0,6.405686855E0,6.688202381E0
2.807374631E0,-2.464830637E0,6.396110058E0,6.683413982E0
2.817351984E0,-2.479195833E0,6.405686855E0,6.697779179E0
2.827419655E0,-2.455253839E0,6.396110058E0,6.707355976E0
2.837463972E0,-2.474407434E0,6.429628849E0,6.697779179E0
2.847475690E0,-2.474407434E0,6.405686855E0,6.692990780E0
2.857478969E0,-2.469619036E0,6.405686855E0,6.692990780E0
2.867504757E0,-2.469619036E0,6.415263653E0,6.702567577E0
2.877567861E0,-2.479195833E0,6.410475254E0,6.692990780E0
2.887601178E0,-2.455253839E0,6.391321659E0,6.683413982E0
2.897563220E0,-2.483984232E0,6.424840450E0,6.688202381E0
2.907679411E0,-2.469619036E0,6.410475254E0,6.692990780E0
2.917719738E0,-2.464830637E0,6.391321659E0,6.702567577E0
2.927649518E0,-2.483984232E0,6.391321659E0,6.692990780E0
2.937684020E0,-2.469619036E0,6.396110058E0,6.692990780E0
2.947720404E0,-2.460042238E0,6.415263653E0,6.707355976E0
2.957831647E0,-2.474407434E0,6.396110058E0,6.683413982E0
2.967823668E0,-2.469619036E0,6.400898457E0,6.678625584E0
2.977843622E0,-2.479195833E0,6.391321659E0,6.697779179E0
2.987827251E0,-2.464830637E0,6.391321659E0,6.712144375E0
2.997841669E0,-2.488772631E0,6.391321659E0,6.678625584E0
3.007930824E0,-2.488772631E0,6.410475254E0,6.654683590E0
3.017900211E0,-2.450465441E0,6.400898457E0,6.688202381E0
3.027948333E0,-2.469619036E0,6.410475254E0,6.712144375E0
3.038029670E0,-2.474407434E0,6.400898457E0,6.673837185E0
3.048046699E0,-2.450465441E0,6.405686855E0,6.707355976E0
3.058048544E0,-2.464830637E0,6.405686855E0,6.678625584E0
3.068036819E0,-2.469619036E0,6.405686855E0,6.683413982E0
3.078104133E0,-2.464830637E0,6.429628849E0,6.707355976E0
3.088151500E0,-2.479195833E0,6.420052052E0,6.688202381E0
3.098110323E0,-2.479195833E0,6.381744862E0,6.673837185E0
3.108152037E0,-2.460042238E0,6.410475254E0,6.678625584E0
3.118214821E0,-2.483984232E0,6.400898457E0,6.721721172E0
3.128200038E0,-2.460042238E0,6.396110058E0,6.726509571E0
3.138242149E0,-2.479195833E0,6.410475254E0,6.716932774E0
3.148334614E0,-2.469619036E0,6.434417248E0,6.697779179E0
3.158304594E0,-2.464830637E0,6.420052052E0,6.654683590E0
3.168304084E0,-2.460042238E0,6.415263653E0,6.678625584E0
3.178333665E0,-2.464830637E0,6.410475254E0,6.688202381E0
3.188394862E0,-2.469619036E0,6.381744862E0,6.697779179E0
3.198468284E0,-2.479195833E0,6.415263653E0,6.683413982E0
3.208433628E0,-2.464830637E0,6.376956463E0,6.673837185E0
3.218501572E0,-2.450465441E0,6.400898457E0,6.673837185E0
3.228495604E0,-2.479195833E0,6.410475254E0,6.692990780E0
3.238494101E0,-2.479195833E0,6.420052052E0,6.683413982E0
3.248578298E0,-2.479195833E0,6.391321659E0,6.688202381E0
3.258581533E0,-2.464830637E0,6.386533260E0,6.688202381E0
3.268663084E0,-2.445677042E0,6.415263653E0,6.712144375E0
3.278622225E0,-2.479195833E0,6.424840450E0,6.707355976E0
3.288638451E0,-2.469619036E0,6.415263653E0,6.688202381E0
3.298655649E0,-2.460042238E0,6.400898457E0,6.692990780E0
3.308720244E0,-2.469619036E0,6.420052052E0,6.702567577E0
3.318719460E0,-2.493561029E0,6.386533260E0,6.707355976E0
3.328780686E0,-2.464830637E0,6.424840450E0,6.683413982E0
3.338776082E0,-2.474407434E0,6.391321659E0,6.688202381E0
3.348880335E0,-2.469619036E0,6.391321659E0,6.692990780E0
3.358937112E0,-2.474407434E0,6.400898457E0,6.697779179E0
3.368876323E0,-2.474407434E0,6.386533260E0,6.712144375E0
3.378882772E0,-2.479195833E0,6.386533260E0,6.673837185E0
3.388894130E0,-2.474407434E0,6.386533260E0,6.688202381E0
3.398927185E0,-2.460042238E0,6.415263653E0,6.688202381E0
3.408960606E0,-2.464830637E0,6.386533260E0,6.683413982E0
3.418983342E0,-2.450465441E0,6.424840450E0,6.669048786E0
3.429113072E0,-2.469619036E0,6.405686855E0,6.669048786E0
3.439059581E0,-2.455253839E0,6.410475254E0,6.716932774E0
3.449129554E0,-2.474407434E0,6.429628849E0,6.688202381E0
3.459102739E0,-2.460042238E0,6.396110058E0,6.683413982E0
3.469188535E0,-2.464830637E0,6.410475254E0,6.683413982E0
3.479168036E0,-2.469619036E0,6.405686855E0,6.697779179E0
3.489253808E0,-2.483984232E0,6.415263653E0,6.697779179E0
3.499279077E0,-2.469619036E0,6.415263653E0,6.688202381E0
3.509321158E0,-2.464830637E0,6.391321659E0,6.683413982E0
3.519337458E0,-2.450465441E0,6.415263653E0,6.716932774E0
3.529313604E0,-2.460042238E0,6.410475254E0,6.712144375E0
3.539369597E0,-2.464830637E0,6.381744862E0,6.697779179E0
3.549431490E0,-2.464830637E0,6.410475254E0,6.697779179E0
3.559379194E0,-2.464830637E0,6.405686855E0,6.731297970E0
3.569450473E0,-2.483984232E0,6.396110058E0,6.692990780E0
3.579444849E0,-2.464830637E0,6.405686855E0,6.678625584E0
3.589502181E0,-2.450465441E0,6.420052052E0,6.692990780E0
3.599492924E0,-2.460042238E0,6.410475254E0,6.702567577E0
3.609497869E0,-2.469619036E0,6.415263653E0,6.712144375E0
3.619537299E0,-2.493561029E0,6.391321659E0,6.702567577E0
3.629605227E0,-2.469619036E0,6.391321659E0,6.683413982E0
3.639598661E0,-2.479195833E0,6.396110058E0,6.692990780E0
3.649660994E0,-2.479195833E0,6.405686855E0,6.697779179E0
3.659644182E0,-2.479195833E0,6.405686855E0,6.707355976E0
3.669651150E0,-2.464830637E0,6.405686855E0,6.673837185E0
3.679791150E0,-2.474407434E0,6.396110058E0,6.678625584E0
3.689756633E0,-2.469619036E0,6.381744862E0,6.702567577E0
3.699747081E0,-2.469619036E0,6.396110058E0,6.692990780E0
3.709774393E0,-2.469619036E0,6.410475254E0,6.683413982E0
3.719842651E0,-2.460042238E0,6.424840450E0,6.716932774E0
3.729864481E0,-2.469619036E0,6.400898457E0,6.707355976E0
3.739966126E0,-2.483984232E0,6.410475254E0,6.692990780E0
3.749967373E0,-2.483984232E0,6.405686855E0,6.688202381E0
3.760010531E0,-2.469619036E0,6.391321659E0,6.692990780E0
3.769962187E0,-2.464830637E0,6.415263653E0,6.702567577E0
3.779995255E0,-2.464830637E0,6.410475254E0,6.712144375E0
3.789960810E0,-2.488772631E0,6.429628849E0,6.692990780E0
3.800032528E0,-2.474407434E0,6.400898457E0,6.683413982E0
3.810057987E0,-2.474407434E0,6.415263653E0,6.712144375E0
3.820159257E0,-2.464830637E0,6.420052052E0,6.678625584E0
3.830127796E0,-2.469619036E0,6.391321659E0,6.673837185E0
3.840202356E0,-2.460042238E0,6.424840450E0,6.683413982E0
3.850234519E0,-2.464830637E0,6.400898457E0,6.688202381E0
3.860157135E0,-2.474407434E0,6.420052052E0,6.692990780E0
3.870221472E0,-2.464830637E0,6.381744862E0,6.697779179E0
3.880197224E0,-2.479195833E0,6.424840450E0,6.692990780E0
3.890263546E0,-2.469619036E0,6.391321659E0,6.688202381E0
3.900244823E0,-2.455253839E0,6.420052052E0,6.688202381E0
3.910372505E0,-2.445677042E0,6.391321659E0,6.688202381E0
3.920340802E0,-2.479195833E0,6.405686855E0,6.688202381E0
3.930357489E0,-2.474407434E0,6.396110058E0,6.688202381E0
3.940449378E0,-2.450465441E0,6.405686855E0,6.673837185E0
3.950369643E0,-2.479195833E0,6.405686855E0,6.692990780E0
3.960497388E0,-2.474407434E0,6.400898457E0,6.688202381E0
3.970413332E0,-2.483984232E0,6.405686855E0,6.673837185E0
3.980488023E0,-2.469619036E0,6.396110058E0,6.683413982E0
3.990508585E0,-2.469619036E0,6.400898457E0,6.673837185E0
4.000599879E0,-2.469619036E0,6.376956463E0,6.673837185E0
4.010558734E0,-2.469619036E0,6.424840450E0,6.669048786E0
4.010558734E0,-2.455253839E0,6.429628849E0,6.692990780E0
4.020409775E0,-2.455253839E0,6.396110058E0,6.697779179E0
4.030486718E0,-2.445677042E0,6.434417248E0,6.678625584E0
4.040578811E0,-2.431311846E0,6.424840450E0,6.678625584E0
4.050649265E0,-2.431311846E0,6.396110058E0,6.669048786E0
4.060587383E0,-2.450465441E0,6.400898457E0,6.702567577E0
4.070628994E0,-2.431311846E0,6.396110058E0,6.683413982E0
4.080552738E0,-2.450465441E0,6.420052052E0,6.649895191E0
4.090669508E0,-2.450465441E0,6.410475254E0,6.659471989E0
4.100689296E0,-2.445677042E0,6.400898457E0,6.678625584E0
4.110756006E0,-2.464830637E0,6.429628849E0,6.688202381E0
4.120746042E0,-2.460042238E0,6.420052052E0,6.649895191E0
4.130815578E0,-2.469619036E0,6.429628849E0,6.683413982E0
4.140853127E0,-2.460042238E0,6.400898457E0,6.683413982E0
4.150746140E0,-2.450465441E0,6.410475254E0,6.659471989E0
4.160771491E0,-2.445677042E0,6.415263653E0,6.678625584E0
4.170811204E0,-2.445677042E0,6.415263653E0,6.673837185E0
4.180854132E0,-2.464830637E0,6.420052052E0,6.702567577E0
4.190914846E0,-2.455253839E0,6.405686855E0,6.673837185E0
4.200937726E0,-2.440888643E0,6.405686855E0,6.683413982E0
4.211019930E0,-2.431311846E0,6.405686855E0,6.683413982E0
4.220961061E0,-2.440888643E0,6.391321659E0,6.673837185E0
4.230954965E0,-2.440888643E0,6.405686855E0,6.659471989E0
4.240992411E0,-2.431311846E0,6.396110058E0,6.669048786E0
4.251033289E0,-2.440888643E0,6.415263653E0,6.678625584E0
4.261074129E0,-2.440888643E0,6.386533260E0,6.702567577E0
4.271169575E0,-2.436100245E0,6.415263653E0,6.678625584E0
4.281184900E0,-2.440888643E0,6.424840450E0,6.673837185E0
4.291250227E0,-2.455253839E0,6.396110058E0,6.673837185E0
4.301188475E0,-2.464830637E0,6.396110058E0,6.669048786E0
4.311213053E0,-2.416946650E0,6.405686855E0,6.688202381E0
4.321342284E0,-2.450465441E0,6.410475254E0,6.678625584E0
4.331302031E0,-2.445677042E0,6.429628849E0,6.669048786E0
4.341300762E0,-2.450465441E0,6.439205647E0,6.659471989E0
4.351370865E0,-2.445677042E0,6.420052052E0,6.697779179E0
4.361447660E0,-2.440888643E0,6.429628849E0,6.630741596E0
4.371477257E0,-2.440888643E0,6.424840450E0,6.678625584E0
4.381415966E0,-2.450465441E0,6.410475254E0,6.702567577E0
4.391546399E0,-2.436100245E0,6.420052052E0,6.707355976E0
4.401493301E0,-2.455253839E0,6.415263653E0,6.707355976E0
4.411582258E0,-2.421735048E0,6.410475254E0,6.673837185E0
4.421527539E0,-2.421735048E0,6.381744862E0,6.664260387E0
4.431656046E0,-2.431311846E0,6.420052052E0,6.673837185E0
4.441606649E0,-2.455253839E0,6.415263653E0,6.669048786E0
4.451639210E0,-2.440888643E0,6.420052052E0,6.649895191E0
4.461635338E0,-2.421735048E0,6.424840450E0,6.688202381E0
4.471674400E0,-2.455253839E0,6.396110058E0,6.669048786E0
4.481728455E0,-2.450465441E0,6.439205647E0,6.664260387E0
4.491807476E0,-2.455253839E0,6.410475254E0,6.669048786E0
4.501849584E0,-2.460042238E0,6.396110058E0,6.669048786E0
4.511828011E0,-2.460042238E0,6.415263653E0,6.688202381E0
4.521892602E0,-2.440888643E0,6.410475254E0,6.669048786E0
4.531924152E0,-2.455253839E0,6.420052052E0,6.683413982E0
4.541871350E0,-2.445677042E0,6.410475254E0,6.688202381E0
4.551973105E0,-2.455253839E0,6.420052052E0,6.673837185E0
4.561956856E0,-2.460042238E0,6.424840450E0,6.683413982E0
4.571940650E0,-2.450465441E0,6.405686855E0,6.688202381E0
4.581957885E0,-2.445677042E0,6.424840450E0,6.673837185E0
4.592021181E0,-2.445677042E0,6.424840450E0,6.697779179E0
4.602047193E0,-2.455253839E0,6.424840450E0,6.683413982E0
4.612131060E0,-2.455253839E0,6.400898457E0,6.688202381E0
4.622129317E0,-2.455253839E0,6.400898457E0,6.645106792E0
4.632155040E0,-2.455253839E0,6.410475254E0,6.688202381E0
4.642194697E0,-2.469619036E0,6.410475254E0,6.669048786E0
4.652141860E0,-2.455253839E0,6.400898457E0,6.707355976E0
4.662269919E0,-2.450465441E0,6.410475254E0,6.664260387E0
4.672191798E0,-2.455253839E0,6.415263653E0,6.688202381E0
4.682305946E0,-2.450465441E0,6.381744862E0,6.673837185E0
4.692351562E0,-2.460042238E0,6.405686855E0,6.692990780E0
4.702374772E0,-2.450465441E0,6.420052052E0,6.673837185E0
4.712362265E0,-2.455253839E0,6.429628849E0,6.678625584E0
4.722376606E0,-2.455253839E0,6.420052052E0,6.692990780E0
4.732350349E0,-2.440888643E0,6.405686855E0,6.659471989E0
4.742422776E0,-2.450465441E0,6.415263653E0,6.707355976E0
4.752460079E0,-2.450465441E0,6.410475254E0,6.683413982E0
4.762491090E0,-2.455253839E0,6.410475254E0,6.664260387E0
4.772513053E0,-2.445677042E0,6.420052052E0,6.664260387E0
4.782590346E0,-2.445677042E0,6.410475254E0,6.659471989E0
4.792525123E0,-2.445677042E0,6.434417248E0,6.673837185E0
4.802599936E0,-2.455253839E0,6.410475254E0,6.716932774E0
4.812621513E0,-2.440888643E0,6.420052052E0,6.673837185E0
4.822726811E0,-2.445677042E0,6.420052052E0,6.659471989E0
4.832736022E0,-2.436100245E0,6.400898457E0,6.664260387E0
4.842710314E0,-2.464830637E0,6.400898457E0,6.702567577E0
4.852684384E0,-2.450465441E0,6.439205647E0,6.669048786E0
4.862776242E0,-2.436100245E0,6.396110058E0,6.649895191E0
4.872784917E0,-2.445677042E0,6.386533260E0,6.669048786E0
4.882820662E0,-2.450465441E0,6.424840450E0,6.654683590E0
4.892800722E0,-2.450465441E0,6.420052052E0,6.673837185E0
4.902866147E0,-2.436100245E0,6.396110058E0,6.673837185E0
4.912853813E0,-2.464830637E0,6.400898457E0,6.654683590E0
4.922982731E0,-2.431311846E0,6.405686855E0,6.697779179E0
4.932911994E0,-2.445677042E0,6.396110058E0,6.688202381E0
4.942996642E0,-2.460042238E0,6.405686855E0,6.678625584E0
4.953069254E0,-2.455253839E0,6.424840450E0,6.673837185E0
4.963000486E0,-2.455253839E0,6.400898457E0,6.692990780E0
4.973080656E0,-2.469619036E0,6.434417248E0,6.683413982E0
4.983087224E0,-2.450465441E0,6.415263653E0,6.688202381E0
4.993116906E0,-2.450465441E0,6.410475254E0,6.664260387E0
5.003175514E0,-2.460042238E0,6.405686855E0,6.683413982E0
5.013192534E0,-2.455253839E0,6.448782444E0,6.673837185E0
5.023299248E0,-2.455253839E0,6.415263653E0,6.664260387E0
5.033314697E0,-2.450465441E0,6.400898457E0,6.669048786E0
5.043245522E0,-2.445677042E0,6.396110058E0,6.645106792E0
5.053260104E0,-2.450465441E0,6.405686855E0,6.702567577E0
5.063380961E0,-2.450465441E0,6.424840450E0,6.688202381E0
5.073315393E0,-2.460042238E0,6.405686855E0,6.669048786E0
5.083369224E0,-2.436100245E0,6.400898457E0,6.673837185E0
5.093383295E0,-2.445677042E0,6.420052052E0,6.664260387E0
5.103528081E0,-2.440888643E0,6.400898457E0,6.697779179E0
5.113440553E0,-2.440888643E0,6.420052052E0,6.659471989E0
5.123515468E0,-2.440888643E0,6.405686855E0,6.669048786E0
5.133623731E0,-2.445677042E0,6.405686855E0,6.678625584E0
5.143575777E0,-2.455253839E0,6.424840450E0,6.673837185E0
5.153642705E0,-2.440888643E0,6.400898457E0,6.673837185E0
5.163622275E0,-2.445677042E0,6.420052052E0,6.683413982E0
5.173617689E0,-2.450465441E0,6.405686855E0,6.664260387E0
5.183718819E0,-2.436100245E0,6.410475254E0,6.678625584E0
5.193688844E0,-2.445677042E0,6.396110058E0,6.688202381E0
5.203826667E0,-2.450465441E0,6.420052052E0,6.673837185E0
5.213715901E0,-2.455253839E0,6.405686855E0,6.669048786E0
5.223734057E0,-2.455253839E0,6.420052052E0,6.654683590E0
5.233857561E0,-2.445677042E0,6.396110058E0,6.688202381E0
5.243887260E0,-2.455253839E0,6.391321659E0,6.673837185E0
5.253811161E0,-2.445677042E0,6.405686855E0,6.678625584E0
5.263846315E0,-2.455253839E0,6.405686855E0,6.673837185E0
5.273853582E0,-2.426523447E0,6.410475254E0,6.664260387E0
5.283883576E0,-2.450465441E0,6.400898457E0,6.654683590E0
5.293911222E0,-2.460042238E0,6.405686855E0,6.669048786E0
5.303964306E0,-2.431311846E0,6.429628849E0,6.654683590E0
5.313963449E0,-2.440888643E0,6.415263653E0,6.645106792E0
5.324097445E0,-2.436100245E0,6.429628849E0,6.664260387E0
5.334093408E0,-2.445677042E0,6.420052052E0,6.683413982E0
5.344075793E0,-2.450465441E0,6.410475254E0,6.678625584E0
5.354135064E0,-2.440888643E0,6.420052052E0,6.659471989E0
5.364134663E0,-2.460042238E0,6.410475254E0,6.654683590E0
5.374144226E0,-2.431311846E0,6.420052052E0,6.673837185E0
5.384192759E0,-2.450465441E0,6.405686855E0,6.625953197E0
5.394193066E0,-2.445677042E0,6.420052052E0,6.707355976E0
5.404218869E0,-2.445677042E0,6.429628849E0,6.669048786E0
5.414246234E0,-2.450465441E0,6.434417248E0,6.640318394E0
5.424357297E0,-2.455253839E0,6.420052052E0,6.678625584E0
5.434386068E0,-2.440888643E0,6.420052052E0,6.697779179E0
5.444444717E0,-2.440888643E0,6.434417248E0,6.688202381E0
5.454446730E0,-2.440888643E0,6.400898457E0,6.678625584E0
5.464451815E0,-2.460042238E0,6.386533260E0,6.692990780E0
5.474491868E0,-2.455253839E0,6.420052052E0,6.664260387E0
5.484545112E0,-2.431311846E0,6.405686855E0,6.664260387E0
5.494549619E0,-2.450465441E0,6.424840450E0,6.678625584E0
5.504597425E0,-2.455253839E0,6.448782444E0,6.697779179E0
5.514532335E0,-2.450465441E0,6.415263653E0,6.669048786E0
5.524669796E0,-2.440888643E0,6.415263653E0,6.659471989E0
5.534657054E0,-2.460042238E0,6.400898457E0,6.688202381E0
5.544689047E0,-2.440888643E0,6.415263653E0,6.692990780E0
5.554754743E0,-2.450465441E0,6.391321659E0,6.673837185E0
5.564676122E0,-2.455253839E0,6.415263653E0,6.664260387E0
5.574692877E0,-2.436100245E0,6.420052052E0,6.688202381E0
5.584733905E0,-2.445677042E0,6.424840450E0,6.697779179E0
5.594795238E0,-2.436100245E0,6.415263653E0,6.673837185E0
5.604863603E0,-2.445677042E0,6.424840450E0,6.659471989E0
5.614900346E0,-2.450465441E0,6.429628849E0,6.669048786E0
5.624930668E0,-2.445677042E0,6.410475254E0,6.688202381E0
5.634862676E0,-2.445677042E0,6.424840450E0,6.664260387E0
5.644886051E0,-2.460042238E0,6.400898457E0,6.654683590E0
5.654893984E0,-2.436100245E0,6.424840450E0,6.678625584E0
5.665031760E0,-2.455253839E0,6.415263653E0,6.673837185E0
5.674968964E0,-2.436100245E0,6.400898457E0,6.688202381E0
5.684967729E0,-2.445677042E0,6.396110058E0,6.678625584E0
5.695038250E0,-2.426523447E0,6.400898457E0,6.669048786E0
5.705030406E0,-2.445677042E0,6.410475254E0,6.678625584E0
5.715117703E0,-2.445677042E0,6.429628849E0,6.692990780E0
5.725093122E0,-2.436100245E0,6.424840450E0,6.645106792E0
5.735157658E0,-2.436100245E0,6.400898457E0,6.673837185E0
5.745137402E0,-2.436100245E0,6.420052052E0,6.688202381E0
5.755227882E0,-2.460042238E0,6.410475254E0,6.683413982E0
5.765189142E0,-2.431311846E0,6.424840450E0,6.683413982E0
5.775327082E0,-2.455253839E0,6.420052052E0,6.664260387E0
5.785296385E0,-2.445677042E0,6.415263653E0,6.673837185E0
5.795286050E0,-2.464830637E0,6.439205647E0,6.712144375E0
5.805444275E0,-2.450465441E0,6.405686855E0,6.664260387E0
5.815430370E0,-2.440888643E0,6.405686855E0,6.640318394E0
5.825368198E0,-2.426523447E0,6.400898457E0,6.678625584E0
5.835403552E0,-2.469619036E0,6.434417248E0,6.673837185E0
5.845573109E0,-2.445677042E0,6.415263653E0,6.659471989E0
5.855456963E0,-2.455253839E0,6.434417248E0,6.683413982E0
5.865547871E0,-2.440888643E0,6.429628849E0,6.702567577E0
5.875504915E0,-2.450465441E0,6.424840450E0,6.654683590E0
5.885577795E0,-2.455253839E0,6.405686855E0,6.683413982E0
5.895664737E0,-2.440888643E0,6.391321659E0,6.640318394E0
5.905638328E0,-2.445677042E0,6.405686855E0,6.669048786E0
5.915606960E0,-2.431311846E0,6.410475254E0,6.688202381E0
5.925611889E0,-2.440888643E0,6.420052052E0,6.683413982E0
5.935632020E0,-2.445677042E0,6.410475254E0,6.659471989E0
5.945734163E0,-2.445677042E0,6.415263653E0,6.683413982E0
5.955713720E0,-2.445677042E0,6.443994045E0,6.673837185E0
5.965776007E0,-2.445677042E0,6.415263653E0,6.659471989E0
5.975743660E0,-2.460042238E0,6.400898457E0,6.669048786E0
5.985890601E0,-2.455253839E0,6.415263653E0,6.688202381E0
5.995805695E0,-2.450465441E0,6.410475254E0,6.649895191E0
6.005823114E0,-2.464830637E0,6.434417248E0,6.669048786E0
6.015827178E0,-2.464830637E0,6.400898457E0,6.659471989E0
6.025901908E0,-2.455253839E0,6.400898457E0,6.640318394E0
6.035883201E0,-2.436100245E0,6.439205647E0,6.702567577E0
6.045915582E0,-2.464830637E0,6.410475254E0,6.692990780E0
6.055924506E0,-2.445677042E0,6.410475254E0,6.683413982E0
6.066028111E0,-2.445677042E0,6.420052052E0,6.654683590E0
6.075985004E0,-2.445677042E0,6.400898457E0,6.688202381E0
6.086062043E0,-2.450465441E0,6.400898457E0,6.683413982E0
6.096030613E0,-2.450465441E0,6.420052052E0,6.664260387E0
6.106161814E0,-2.445677042E0,6.429628849E0,6.669048786E0
6.116089686E0,-2.460042238E0,6.415263653E0,6.654683590E0
6.126106156E0,-2.436100245E0,6.434417248E0,6.702567577E0
6.136126953E0,-2.436100245E0,6.429628849E0,6.678625584E0
6.146164593E0,-2.450465441E0,6.410475254E0,6.673837185E0
6.156244532E0,-2.460042238E0,6.434417248E0,6.688202381E0
6.166216630E0,-2.436100245E0,6.415263653E0,6.678625584E0
6.176230268E0,-2.440888643E0,6.420052052E0,6.664260387E0
6.186274108E0,-2.436100245E0,6.400898457E0,6.673837185E0
6.196293390E0,-2.455253839E0,6.396110058E0,6.683413982E0
6.206370870E0,-2.455253839E0,6.410475254E0,6.678625584E0
6.216342718E0,-2.436100245E0,6.400898457E0,6.659471989E0
6.226369654E0,-2.450465441E0,6.405686855E0,6.659471989E0
6.236394925E0,-2.450465441E0,6.391321659E0,6.678625584E0
6.246418531E0,-2.450465441E0,6.420052052E0,6.688202381E0
6.256494792E0,-2.440888643E0,6.420052052E0,6.678625584E0
6.266598875E0,-2.450465441E0,6.415263653E0,6.664260387E0
6.276506184E0,-2.436100245E0,6.420052052E0,6.669048786E0
6.286519484E0,-2.450465441E0,6.396110058E0,6.712144375E0
6.296538184E0,-2.455253839E0,6.420052052E0,6.654683590E0
6.306696576E0,-2.445677042E0,6.415263653E0,6.654683590E0
6.316603848E0,-2.445677042E0,6.405686855E0,6.669048786E0
6.326612607E0,-2.445677042E0,6.420052052E0,6.683413982E0
6.336633804E0,-2.445677042E0,6.405686855E0,6.678625584E0
6.346679704E0,-2.460042238E0,6.420052052E0,6.659471989E0
6.356700815E0,-2.445677042E0,6.415263653E0,6.683413982E0
6.366743840E0,-2.436100245E0,6.420052052E0,6.678625584E0
6.376733468E0,-2.460042238E0,6.405686855E0,6.678625584E0
6.386784291E0,-2.431311846E0,6.420052052E0,6.683413982E0
6.396793658E0,-2.436100245E0,6.448782444E0,6.673837185E0
6.406807294E0,-2.440888643E0,6.420052052E0,6.678625584E0
6.416827673E0,-2.440888643E0,6.429628849E0,6.697779179E0
6.426924122E0,-2.460042238E0,6.420052052E0,6.640318394E0
6.436884995E0,-2.436100245E0,6.420052052E0,6.654683590E0
6.446908909E0,-2.440888643E0,6.400898457E0,6.659471989E0
6.456986023E0,-2.436100245E0,6.439205647E0,6.669048786E0
6.467068724E0,-2.464830637E0,6.439205647E0,6.673837185E0
6.476993081E0,-2.445677042E0,6.424840450E0,6.688202381E0
6.487007375E0,-2.474407434E0,6.434417248E0,6.664260387E0
6.497028157E0,-2.460042238E0,6.405686855E0,6.683413982E0
6.507168651E0,-2.440888643E0,6.405686855E0,6.659471989E0
6.517097526E0,-2.450465441E0,6.405686855E0,6.673837185E0
6.527105086E0,-2.460042238E0,6.400898457E0,6.673837185E0
6.537129695E0,-2.445677042E0,6.434417248E0,6.659471989E0
6.547166191E0,-2.450465441E0,6.429628849E0,6.645106792E0
6.557179657E0,-2.445677042E0,6.405686855E0,6.669048786E0
6.567219297E0,-2.450465441E0,6.405686855E0,6.688202381E0
6.577223707E0,-2.436100245E0,6.410475254E0,6.673837185E0
6.587308953E0,-2.445677042E0,6.424840450E0,6.664260387E0
6.597284807E0,-2.445677042E0,6.410475254E0,6.664260387E0
6.607303637E0,-2.455253839E0,6.415263653E0,6.654683590E0
6.617343177E0,-2.421735048E0,6.410475254E0,6.664260387E0
6.627390289E0,-2.436100245E0,6.396110058E0,6.664260387E0
6.637420362E0,-2.440888643E0,6.424840450E0,6.683413982E0
6.647465803E0,-2.450465441E0,6.405686855E0,6.688202381E0
6.657453611E0,-2.440888643E0,6.405686855E0,6.692990780E0
6.667466748E0,-2.469619036E0,6.434417248E0,6.669048786E0
6.677473107E0,-2.464830637E0,6.410475254E0,6.664260387E0
6.687562102E0,-2.445677042E0,6.424840450E0,6.683413982E0
6.697548500E0,-2.440888643E0,6.420052052E0,6.716932774E0
6.707664198E0,-2.455253839E0,6.415263653E0,6.654683590E0
6.717578293E0,-2.426523447E0,6.424840450E0,6.659471989E0
6.727659164E0,-2.445677042E0,6.400898457E0,6.688202381E0
6.737691063E0,-2.440888643E0,6.448782444E0,6.692990780E0
6.747697251E0,-2.450465441E0,6.415263653E0,6.688202381E0
6.757738276E0,-2.445677042E0,6.415263653E0,6.640318394E0
6.767699160E0,-2.455253839E0,6.424840450E0,6.664260387E0
6.777773415E0,-2.450465441E0,6.420052052E0,6.692990780E0
6.787807548E0,-2.450465441E0,6.405686855E0,6.707355976E0
6.797823393E0,-2.455253839E0,6.415263653E0,6.692990780E0
6.807847139E0,-2.450465441E0,6.424840450E0,6.683413982E0
6.817825343E0,-2.455253839E0,6.429628849E0,6.654683590E0
6.827906105E0,-2.440888643E0,6.415263653E0,6.669048786E0
6.837871665E0,-2.440888643E0,6.415263653E0,6.664260387E0
6.848007689E0,-2.445677042E0,6.429628849E0,6.683413982E0
6.857977204E0,-2.460042238E0,6.405686855E0,6.678625584E0
6.867954452E0,-2.450465441E0,6.396110058E0,6.659471989E0
6.878023819E0,-2.440888643E0,6.400898457E0,6.673837185E0
6.888059152E0,-2.450465441E0,6.410475254E0,6.697779179E0
6.898033338E0,-2.464830637E0,6.415263653E0,6.697779179E0
6.908104613E0,-2.450465441E0,6.396110058E0,6.654683590E0
6.918073923E0,-2.455253839E0,6.420052052E0,6.654683590E0
6.928158616E0,-2.450465441E0,6.424840450E0,6.697779179E0
6.938125722E0,-2.436100245E0,6.443994045E0,6.669048786E0
6.948202513E0,-2.450465441E0,6.410475254E0,6.669048786E0
6.958180853E0,-2.450465441E0,6.415263653E0,6.664260387E0
6.968202357E0,-2.445677042E0,6.420052052E0,6.664260387E0
6.978275619E0,-2.455253839E0,6.405686855E0,6.673837185E0
6.988254418E0,-2.436100245E0,6.420052052E0,6.669048786E0
6.998323035E0,-2.445677042E0,6.415263653E0,6.683413982E0
7.008353962E0,-2.445677042E0,6.410475254E0,6.659471989E0
7.018343309E0,-2.455253839E0,6.424840450E0,6.678625584E0
7.028402548E0,-2.455253839E0,6.429628849E0,6.673837185E0
7.038374787E0,-2.445677042E0,6.415263653E0,6.683413982E0
7.048464758E0,-2.450465441E0,6.415263653E0,6.654683590E0
7.058414844E0,-2.445677042E0,6.420052052E0,6.683413982E0
7.068543252E0,-2.455253839E0,6.429628849E0,6.673837185E0
7.078523015E0,-2.440888643E0,6.424840450E0,6.683413982E0
7.088557720E0,-2.455253839E0,6.415263653E0,6.669048786E0
7.098559409E0,-2.450465441E0,6.424840450E0,6.635529995E0
7.108533527E0,-2.455253839E0,6.420052052E0,6.673837185E0
7.118601618E0,-2.436100245E0,6.410475254E0,6.678625584E0
7.128601643E0,-2.455253839E0,6.410475254E0,6.673837185E0
7.138646391E0,-2.436100245E0,6.415263653E0,6.702567577E0
7.148740387E0,-2.445677042E0,6.429628849E0,6.654683590E0
7.158709973E0,-2.436100245E0,6.405686855E0,6.673837185E0
7.168745746E0,-2.455253839E0,6.396110058E0,6.692990780E0
7.178837764E0,-2.440888643E0,6.420052052E0,6.645106792E0
7.188798550E0,-2.464830637E0,6.424840450E0,6.664260387E0
7.198807521E0,-2.455253839E0,6.410475254E0,6.707355976E0
7.208802118E0,-2.436100245E0,6.396110058E0,6.649895191E0
7.218789908E0,-2.455253839E0,6.400898457E0,6.692990780E0
7.228810746E0,-2.445677042E0,6.415263653E0,6.692990780E0
7.238829568E0,-2.450465441E0,6.415263653E0,6.678625584E0
7.248866661E0,-2.426523447E0,6.443994045E0,6.654683590E0
7.258866177E0,-2.445677042E0,6.420052052E0,6.669048786E0
7.268935304E0,-2.426523447E0,6.415263653E0,6.659471989E0
7.278978140E0,-2.464830637E0,6.429628849E0,6.697779179E0
7.288940203E0,-2.445677042E0,6.396110058E0,6.635529995E0
7.299007002E0,-2.431311846E0,6.429628849E0,6.692990780E0
7.309004463E0,-2.440888643E0,6.381744862E0,6.692990780E0
7.319012661E0,-2.445677042E0,6.424840450E0,6.659471989E0
7.329135183E0,-2.445677042E0,6.415263653E0,6.664260387E0
7.339144937E0,-2.436100245E0,6.415263653E0,6.673837185E0
7.349148241E0,-2.431311846E0,6.405686855E0,6.688202381E0
7.359219150E0,-2.440888643E0,6.410475254E0,6.688202381E0
7.369147936E0,-2.479195833E0,6.410475254E0,6.688202381E0
7.379164485E0,-2.455253839E0,6.410475254E0,6.678625584E0
7.389252477E0,-2.431311846E0,6.420052052E0,6.683413982E0
7.399321117E0,-2.450465441E0,6.405686855E0,6.702567577E0
7.409257279E0,-2.431311846E0,6.405686855E0,6.659471989E0
7.419372530E0,-2.455253839E0,6.429628849E0,6.659471989E0
7.429410455E0,-2.455253839E0,6.439205647E0,6.683413982E0
7.439373488E0,-2.455253839E0,6.424840450E0,6.673837185E0
7.449451989E0,-2.455253839E0,6.405686855E0,6.702567577E0
7.459444032E0,-2.450465441E0,6.405686855E0,6.654683590E0
7.469474631E0,-2.440888643E0,6.429628849E0,6.664260387E0
7.479494956E0,-2.450465441E0,6.400898457E0,6.673837185E0
7.489513414E0,-2.460042238E0,6.405686855E0,6.673837185E0
7.499533964E0,-2.469619036E0,6.405686855E0,6.645106792E0
7.509540267E0,-2.460042238E0,6.424840450E0,6.659471989E0
7.519657196E0,-2.450465441E0,6.405686855E0,6.697779179E0
7.529610732E0,-2.460042238E0,6.429628849E0,6.712144375E0
7.539623205E0,-2.436100245E0,6.420052052E0,6.692990780E0
7.549602823E0,-2.455253839E0,6.443994045E0,6.669048786E0
7.559681448E0,-2.440888643E0,6.410475254E0,6.664260387E0
7.569648723E0,-2.436100245E0,6.434417248E0,6.678625584E0
7.579689756E0,-2.440888643E0,6.410475254E0,6.697779179E0
7.589711269E0,-2.431311846E0,6.415263653E0,6.688202381E0
7.599860500E0,-2.469619036E0,6.439205647E0,6.683413982E0
7.609797309E0,-2.455253839E0,6.410475254E0,6.659471989E0
7.619886028E0,-2.440888643E0,6.424840450E0,6.683413982E0
7.629810822E0,-2.445677042E0,6.434417248E0,6.678625584E0
7.639890785E0,-2.440888643E0,6.415263653E0,6.645106792E0
7.649868937E0,-2.469619036E0,6.415263653E0,6.678625584E0
7.659922468E0,-2.450465441E0,6.424840450E0,6.640318394E0
7.669958670E0,-2.455253839E0,6.410475254E0,6.683413982E0
7.680004988E0,-2.455253839E0,6.410475254E0,6.669048786E0
7.690038117E0,-2.450465441E0,6.405686855E0,6.664260387E0
7.699988471E0,-2.436100245E0,6.396110058E0,6.640318394E0
7.710104305E0,-2.450465441E0,6.420052052E0,6.692990780E0
7.720055420E0,-2.440888643E0,6.410475254E0,6.678625584E0
7.730187167E0,-2.460042238E0,6.424840450E0,6.669048786E0
7.740201631E0,-2.460042238E0,6.415263653E0,6.659471989E0
7.750109666E0,-2.455253839E0,6.410475254E0,6.692990780E0
7.760122265E0,-2.455253839E0,6.443994045E0,6.669048786E0
7.770221300E0,-2.440888643E0,6.424840450E0,6.688202381E0
7.780210115E0,-2.445677042E0,6.415263653E0,6.673837185E0
7.790216936E0,-2.445677042E0,6.396110058E0,6.669048786E0
7.800232703E0,-2.440888643E0,6.405686855E0,6.673837185E0
7.810390237E0,-2.455253839E0,6.415263653E0,6.649895191E0
7.820350216E0,-2.460042238E0,6.415263653E0,6.645106792E0
7.830365761E0,-2.431311846E0,6.434417248E0,6.645106792E0
7.840405764E0,-2.426523447E0,6.453570843E0,6.678625584E0
7.850444014E0,-2.445677042E0,6.415263653E0,6.683413982E0
7.860511566E0,-2.450465441E0,6.429628849E0,6.673837185E0
7.870495251E0,-2.445677042E0,6.429628849E0,6.654683590E0
7.880530964E0,-2.436100245E0,6.415263653E0,6.669048786E0
7.890614834E0,-2.450465441E0,6.424840450E0,6.712144375E0
7.900585711E0,-2.445677042E0,6.405686855E0,6.678625584E0
7.910656185E0,-2.431311846E0,6.410475254E0,6.659471989E0
7.920619249E0,-2.445677042E0,6.424840450E0,6.673837185E0
7.930652829E0,-2.455253839E0,6.434417248E0,6.688202381E0
7.940719349E0,-2.440888643E0,6.420052052E0,6.654683590E0
7.950716966E0,-2.440888643E0,6.420052052E0,6.683413982E0
7.960783647E0,-2.440888643E0,6.415263653E0,6.673837185E0
7.970716286E0,-2.431311846E0,6.424840450E0,6.664260387E0
7.980833988E0,-2.445677042E0,6.410475254E0,6.692990780E0
7.990820640E0,-2.455253839E0,6.410475254E0,6.688202381E0
8.000832431E0,-2.445677042E0,6.420052052E0,6.678625584E0
8.000832431E0,-2.440888643E0,6.448782444E0,6.649895191E0
8.010817229E0,-2.445677042E0,6.415263653E0,6.654683590E0
8.020923261E0,-2.445677042E0,6.420052052E0,6.673837185E0
8.030752116E0,-2.445677042E0,6.386533260E0,6.645106792E0
8.040896989E0,-2.431311846E0,6.434417248E0,6.688202381E0
8.050831762E0,-2.450465441E0,6.405686855E0,6.635529995E0
8.060866096E0,-2.436100245E0,6.424840450E0,6.678625584E0
8.070848983E0,-2.455253839E0,6.420052052E0,6.669048786E0
8.080886343E0,-2.464830637E0,6.424840450E0,6.659471989E0
8.090982328E0,-2.440888643E0,6.424840450E0,6.664260387E0
8.101024392E0,-2.440888643E0,6.400898457E0,6.654683590E0
8.110971867E0,-2.431311846E0,6.420052052E0,6.678625584E0
8.121058194E0,-2.440888643E0,6.429628849E0,6.683413982E0
8.131092207E0,-2.440888643E0,6.434417248E0,6.673837185E0
8.141144439E0,-2.460042238E0,6.439205647E0,6.678625584E0
8.151203195E0,-2.445677042E0,6.415263653E0,6.669048786E0
8.161028475E0,-2.440888643E0,6.420052052E0,6.673837185E0
8.171108374E0,-2.436100245E0,6.434417248E0,6.688202381E0
8.181139218E0,-2.436100245E0,6.439205647E0,6.678625584E0
8.191224183E0,-2.450465441E0,6.424840450E0,6.659471989E0
8.201199313E0,-2.450465441E0,6.391321659E0,6.635529995E0
8.211205207E0,-2.440888643E0,6.415263653E0,6.664260387E0
8.221246903E0,-2.445677042E0,6.443994045E0,6.678625584E0
8.231232426E0,-2.460042238E0,6.415263653E0,6.664260387E0
8.241321172E0,-2.445677042E0,6.434417248E0,6.659471989E0
8.251249222E0,-2.440888643E0,6.429628849E0,6.654683590E0
8.261331968E0,-2.431311846E0,6.410475254E0,6.664260387E0
8.271446888E0,-2.455253839E0,6.424840450E0,6.678625584E0
8.281383752E0,-2.460042238E0,6.424840450E0,6.654683590E0
8.291394971E0,-2.460042238E0,6.429628849E0,6.688202381E0
8.301387986E0,-2.431311846E0,6.415263653E0,6.669048786E0
8.311444798E0,-2.455253839E0,6.439205647E0,6.673837185E0
8.321475245E0,-2.450465441E0,6.424840450E0,6.669048786E0
8.331540234E0,-2.450465441E0,6.429628849E0,6.654683590E0
8.341480357E0,-2.440888643E0,6.429628849E0,6.659471989E0
8.351545066E0,-2.440888643E0,6.420052052E0,6.649895191E0
8.361576555E0,-2.436100245E0,6.429628849E0,6.649895191E0
8.371692944E0,-2.450465441E0,6.434417248E0,6.664260387E0
8.381598142E0,-2.436100245E0,6.420052052E0,6.683413982E0
8.391644650E0,-2.436100245E0,6.424840450E0,6.673837185E0
8.401619725E0,-2.460042238E0,6.439205647E0,6.683413982E0
8.411692061E0,-2.436100245E0,6.405686855E0,6.678625584E0
8.421674644E0,-2.431311846E0,6.415263653E0,6.659471989E0
8.431760918E0,-2.440888643E0,6.420052052E0,6.654683590E0
8.441769997E0,-2.436100245E0,6.424840450E0,6.649895191E0
8.451790768E0,-2.455253839E0,6.424840450E0,6.683413982E0
8.461858276E0,-2.445677042E0,6.424840450E0,6.659471989E0
8.471949470E0,-2.455253839E0,6.420052052E0,6.645106792E0
8.481902234E0,-2.436100245E0,6.410475254E0,6.678625584E0
8.491931543E0,-2.431311846E0,6.415263653E0,6.683413982E0
8.501871420E0,-2.431311846E0,6.420052052E0,6.673837185E0
8.511963637E0,-2.412158251E0,6.429628849E0,6.669048786E0
8.521932771E0,-2.450465441E0,6.424840450E0,6.645106792E0
8.532070980E0,-2.455253839E0,6.424840450E0,6.669048786E0
8.542024656E0,-2.445677042E0,6.410475254E0,6.678625584E0
8.552006843E0,-2.436100245E0,6.434417248E0,6.659471989E0
8.562021858E0,-2.460042238E0,6.429628849E0,6.664260387E0
8.572056943E0,-2.436100245E0,6.405686855E0,6.649895191E0
8.582090485E0,-2.455253839E0,6.448782444E0,6.669048786E0
8.592100720E0,-2.455253839E0,6.410475254E0,6.664260387E0
8.602173167E0,-2.445677042E0,6.439205647E0,6.654683590E0
8.612261205E0,-2.426523447E0,6.424840450E0,6.669048786E0
8.622204465E0,-2.450465441E0,6.400898457E0,6.669048786E0
8.632196365E0,-2.426523447E0,6.443994045E0,6.688202381E0
8.642287388E0,-2.445677042E0,6.415263653E0,6.678625584E0
8.652247052E0,-2.455253839E0,6.434417248E0,6.649895191E0
8.662293214E0,-2.445677042E0,6.429628849E0,6.664260387E0
8.672305521E0,-2.445677042E0,6.400898457E0,6.654683590E0
8.682318054E0,-2.436100245E0,6.405686855E0,6.664260387E0
8.692356026E0,-2.450465441E0,6.420052052E0,6.659471989E0
8.702387334E0,-2.440888643E0,6.448782444E0,6.664260387E0
8.712392125E0,-2.431311846E0,6.410475254E0,6.649895191E0
8.722417428E0,-2.431311846E0,6.410475254E0,6.669048786E0
8.732437375E0,-2.426523447E0,6.424840450E0,6.712144375E0
8.742535013E0,-2.445677042E0,6.424840450E0,6.692990780E0
8.752495371E0,-2.455253839E0,6.429628849E0,6.654683590E0
8.762515302E0,-2.445677042E0,6.424840450E0,6.635529995E0
8.772551035E0,-2.436100245E0,6.420052052E0,6.664260387E0
8.782627923E0,-2.460042238E0,6.439205647E0,6.692990780E0
8.792587002E0,-2.436100245E0,6.439205647E0,6.683413982E0
8.802601663E0,-2.455253839E0,6.405686855E0,6.645106792E0
8.812640173E0,-2.426523447E0,6.424840450E0,6.645106792E0
8.822661568E0,-2.416946650E0,6.424840450E0,6.716932774E0
8.832669410E0,-2.455253839E0,6.434417248E0,6.654683590E0
8.842698412E0,-2.436100245E0,6.420052052E0,6.669048786E0
8.852852961E0,-2.440888643E0,6.415263653E0,6.654683590E0
8.862781543E0,-2.436100245E0,6.410475254E0,6.673837185E0
8.872772913E0,-2.445677042E0,6.415263653E0,6.683413982E0
8.882796711E0,-2.450465441E0,6.448782444E0,6.659471989E0
8.892841692E0,-2.436100245E0,6.420052052E0,6.669048786E0
8.902867651E0,-2.440888643E0,6.453570843E0,6.664260387E0
8.912945062E0,-2.431311846E0,6.424840450E0,6.669048786E0
8.922963191E0,-2.436100245E0,6.410475254E0,6.654683590E0
8.933050978E0,-2.426523447E0,6.424840450E0,6.664260387E0
8.943036455E0,-2.436100245E0,6.429628849E0,6.673837185E0
8.953038557E0,-2.455253839E0,6.439205647E0,6.645106792E0
8.962995225E0,-2.450465441E0,6.443994045E0,6.645106792E0
8.973129297E0,-2.440888643E0,6.410475254E0,6.692990780E0
8.983236760E0,-2.450465441E0,6.434417248E0,6.678625584E0
8.993094842E0,-2.436100245E0,6.429628849E0,6.659471989E0
9.003094647E0,-2.445677042E0,6.405686855E0,6.640318394E0
9.013115905E0,-2.431311846E0,6.400898457E0,6.683413982E0
9.023164161E0,-2.455253839E0,6.410475254E0,6.669048786E0
9.033170317E0,-2.445677042E0,6.420052052E0,6.659471989E0
9.043195050E0,-2.431311846E0,6.453570843E0,6.673837185E0
9.053217520E0,-2.426523447E0,6.439205647E0,6.683413982E0
9.063276286E0,-2.460042238E0,6.396110058E0,6.678625584E0
9.073266503E0,-2.455253839E0,6.434417248E0,6.692990780E0
9.083294239E0,-2.455253839E0,6.420052052E0,6.664260387E0
9.093310253E0,-2.431311846E0,6.424840450E0,6.640318394E0
9.103373339E0,-2.455253839E0,6.429628849E0,6.640318394E0
9.113371343E0,-2.421735048E0,6.420052052E0,6.669048786E0
9.123442635E0,-2.431311846E0,6.396110058E0,6.654683590E0
9.133416827E0,-2.464830637E0,6.434417248E0,6.649895191E0
9.143512078E0,-2.450465441E0,6.424840450E0,6.625953197E0
9.153471915E0,-2.460042238E0,6.424840450E0,6.659471989E0
9.163520162E0,-2.431311846E0,6.424840450E0,6.692990780E0
9.173522952E0,-2.445677042E0,6.429628849E0,6.659471989E0
9.183592387E0,-2.464830637E0,6.429628849E0,6.697779179E0
9.193578081E0,-2.455253839E0,6.439205647E0,6.645106792E0
9.203622871E0,-2.460042238E0,6.424840450E0,6.654683590E0
9.213624907E0,-2.445677042E0,6.410475254E0,6.659471989E0
9.223669753E0,-2.460042238E0,6.415263653E0,6.678625584E0
9.233675570E0,-2.455253839E0,6.434417248E0,6.683413982E0
9.243746154E0,-2.455253839E0,6.439205647E0,6.673837185E0
9.253735746E0,-2.450465441E0,6.429628849E0,6.659471989E0
9.263793521E0,-2.450465441E0,6.424840450E0,6.688202381E0
9.273793794E0,-2.440888643E0,6.424840450E0,6.678625584E0
9.283847844E0,-2.455253839E0,6.434417248E0,6.645106792E0
9.293845936E0,-2.445677042E0,6.429628849E0,6.688202381E0
9.303953046E0,-2.440888643E0,6.415263653E0,6.678625584E0
9.313911686E0,-2.450465441E0,6.410475254E0,6.649895191E0
9.323946801E0,-2.445677042E0,6.443994045E0,6.697779179E0
9.333972061E0,-2.445677042E0,6.415263653E0,6.673837185E0
9.343998383E0,-2.440888643E0,6.376956463E0,6.630741596E0
9.354003826E0,-2.436100245E0,6.429628849E0,6.649895191E0
9.364035168E0,-2.431311846E0,6.424840450E0,6.673837185E0
9.374055585E0,-2.445677042E0,6.439205647E0,6.664260387E0
9.384115083E0,-2.426523447E0,6.429628849E0,6.645106792E0
9.394117977E0,-2.436100245E0,6.415263653E0,6.692990780E0
9.404147976E0,-2.440888643E0,6.439205647E0,6.664260387E0
9.414165810E0,-2.440888643E0,6.448782444E0,6.678625584E0
9.424277348E0,-2.436100245E0,6.429628849E0,6.645106792E0
9.434236355E0,-2.450465441E0,6.420052052E0,6.630741596E0
9.444253991E0,-2.431311846E0,6.400898457E0,6.692990780E0
9.454277030E0,-2.460042238E0,6.424840450E0,6.688202381E0
9.464322208E0,-2.445677042E0,6.439205647E0,6.659471989E0
9.474338945E0,-2.450465441E0,6.424840450E0,6.649895191E0
9.484387794E0,-2.440888643E0,6.410475254E0,6.678625584E0
9.494393166E0,-2.455253839E0,6.420052052E0,6.702567577E0
9.504524304E0,-2.440888643E0,6.415263653E0,6.659471989E0
9.514483862E0,-2.445677042E0,6.410475254E0,6.630741596E0
9.524498293E0,-2.445677042E0,6.420052052E0,6.669048786E0
9.534503118E0,-2.436100245E0,6.415263653E0,6.654683590E0
9.544598544E0,-2.450465441E0,6.424840450E0,6.664260387E0
9.554570729E0,-2.440888643E0,6.439205647E0,6.654683590E0
9.564635615E0,-2.455253839E0,6.429628849E0,6.645106792E0
9.574665502E0,-2.455253839E0,6.429628849E0,6.692990780E0
9.584655688E0,-2.440888643E0,6.458359241E0,6.673837185E0
9.594672678E0,-2.440888643E0,6.415263653E0,6.692990780E0
9.604736772E0,-2.440888643E0,6.420052052E0,6.692990780E0
9.614756147E0,-2.436100245E0,6.410475254E0,6.664260387E0
9.624820845E0,-2.460042238E0,6.439205647E0,6.673837185E0
9.634824838E0,-2.455253839E0,6.443994045E0,6.673837185E0
9.644850109E0,-2.426523447E0,6.424840450E0,6.669048786E0
9.654879840E0,-2.450465441E0,6.443994045E0,6.688202381E0
9.664929920E0,-2.440888643E0,6.400898457E0,6.649895191E0
9.674896371E0,-2.455253839E0,6.420052052E0,6.635529995E0
9.684906182E0,-2.416946650E0,6.420052052E0,6.645106792E0
9.694922865E0,-2.445677042E0,6.434417248E0,6.678625584E0
9.705037776E0,-2.450465441E0,6.448782444E0,6.673837185E0
9.715032598E0,-2.445677042E0,6.429628849E0,6.664260387E0
9.725010921E0,-2.460042238E0,6.424840450E0,6.654683590E0
9.735048806E0,-2.460042238E0,6.424840450E0,6.659471989E0
9.745079150E0,-2.450465441E0,6.434417248E0,6.640318394E0
9.755138819E0,-2.431311846E0,6.434417248E0,6.649895191E0
9.765173428E0,-2.436100245E0,6.429628849E0,6.659471989E0
9.775160915E0,-2.450465441E0,6.400898457E0,6.664260387E0
9.785157698E0,-2.436100245E0,6.434417248E0,6.673837185E0
9.795186480E0,-2.440888643E0,6.434417248E0,6.673837185E0
9.805217828E0,-2.450465441E0,6.443994045E0,6.683413982E0
9.815256667E0,-2.450465441E0,6.420052052E0,6.649895191E0
9.825317088E0,-2.431311846E0,6.424840450E0,6.649895191E0
9.835332740E0,-2.460042238E0,6.420052052E0,6.688202381E0
9.845375769E0,-2.464830637E0,6.429628849E0,6.673837185E0
9.855414831E0,-2.426523447E0,6.429628849E0,6.664260387E0
9.865419137E0,-2.440888643E0,6.420052052E0,6.659471989E0
9.875387766E0,-2.445677042E0,6.420052052E0,6.678625584E0
9.885410598E0,-2.436100245E0,6.420052052E0,6.678625584E0
9.895456851E0,-2.445677042E0,6.405686855E0,6.678625584E0
9.905527284E0,-2.436100245E0,6.439205647E0,6.659471989E0
9.915541328E0,-2.450465441E0,6.429628849E0,6.673837185E0
9.925575256E0,-2.464830637E0,6.434417248E0,6.664260387E0
9.935613236E0,-2.469619036E0,6.439205647E0,6.673837185E0
9.945642519E0,-2.440888643E0,6.439205647E0,6.664260387E0
9.955656311E0,-2.445677042E0,6.405686855E0,6.659471989E0
9.965667371E0,-2.469619036E0,6.420052052E0,6.654683590E0
9.975675082E0,-2.450465441E0,6.420052052E0,6.649895191E0
9.985751267E0,-2.450465441E0,6.439205647E0,6.673837185E0
9.995756438E0,-2.455253839E0,6.434417248E0,6.654683590E0
1.000574260E1,-2.431311846E0,6.424840450E0,6.630741596E0
1.001583887E1,-2.445677042E0,6.434417248E0,6.673837185E0
1.002590526E1,-2.440888643E0,6.429628849E0,6.673837185E0
1.003592682E1,-2.440888643E0,6.434417248E0,6.678625584E0
1.004590392E1,-2.450465441E0,6.410475254E0,6.625953197E0
1.005588927E1,-2.460042238E0,6.420052052E0,6.649895191E0
1.006591035E1,-2.440888643E0,6.429628849E0,6.664260387E0
1.007597648E1,-2.445677042E0,6.420052052E0,6.678625584E0
1.008600634E1,-2.445677042E0,6.420052052E0,6.649895191E0
1.009605787E1,-2.464830637E0,6.439205647E0,6.664260387E0
1.010607080E1,-2.445677042E0,6.410475254E0,6.664260387E0
1.011608084E1,-2.426523447E0,6.429628849E0,6.659471989E0
1.012612677E1,-2.431311846E0,6.439205647E0,6.649895191E0
1.013610033E1,-2.464830637E0,6.443994045E0,6.649895191E0
1.014617066E1,-2.455253839E0,6.434417248E0,6.649895191E0
1.015618943E1,-2.440888643E0,6.443994045E0,6.678625584E0
1.016626853E1,-2.450465441E0,6.424840450E0,6.697779179E0
1.017626359E1,-2.440888643E0,6.434417248E0,6.673837185E0
1.018632150E1,-2.440888643E0,6.439205647E0,6.664260387E0
1.019632260E1,-2.436100245E0,6.420052052E0,6.630741596E0
1.020628568E1,-2.440888643E0,6.434417248E0,6.625953197E0
1.021636305E1,-2.436100245E0,6.434417248E0,6.654683590E0
1.022631850E1,-2.440888643E0,6.439205647E0,6.669048786E0
1.023633527E1,-2.445677042E0,6.424840450E0,6.649895191E0
1.024642816E1,-2.440888643E0,6.429628849E0,6.669048786E0
1.025646757E1,-2.464830637E0,6.415263653E0,6.654683590E0
1.026643079E1,-2.450465441E0,6.448782444E0,6.664260387E0
1.027650105E1,-2.436100245E0,6.439205647E0,6.659471989E0
1.028658866E1,-2.450465441E0,6.424840450E0,6.697779179E0
1.029655001E1,-2.450465441E0,6.439205647E0,6.649895191E0
1.030655985E1,-2.421735048E0,6.429628849E0,6.649895191E0
1.031666879E1,-2.445677042E0,6.420052052E0,6.688202381E0
1.032666498E1,-2.445677042E0,6.415263653E0,6.688202381E0
1.033674903E1,-2.445677042E0,6.429628849E0,6.683413982E0
1.034671337E1,-2.445677042E0,6.424840450E0,6.645106792E0
1.035673886E1,-2.450465441E0,6.415263653E0,6.649895191E0
1.036683065E1,-2.445677042E0,6.420052052E0,6.669048786E0
1.037686225E1,-2.431311846E0,6.410475254E0,6.659471989E0
1.038683357E1,-2.450465441E0,6.429628849E0,6.688202381E0
1.039687266E1,-2.445677042E0,6.434417248E0,6.669048786E0
1.040694459E1,-2.440888643E0,6.429628849E0,6.659471989E0
1.041687370E1,-2.445677042E0,6.439205647E0,6.664260387E0
1.042698123E1,-2.460042238E0,6.420052052E0,6.673837185E0
1.043702240E1,-2.450465441E0,6.420052052E0,6.640318394E0
1.044705893E1,-2.455253839E0,6.429628849E0,6.659471989E0
1.045708885E1,-2.436100245E0,6.443994045E0,6.664260387E0
1.046705248E1,-2.450465441E0,6.453570843E0,6.688202381E0
1.047701351E1,-2.426523447E0,6.443994045E0,6.683413982E0
1.048718396E1,-2.440888643E0,6.420052052E0,6.673837185E0
1.049718059E1,-2.440888643E0,6.420052052E0,6.649895191E0
1.050711692E1,-2.440888643E0,6.424840450E0,6.678625584E0
1.051718954E1,-2.455253839E0,6.443994045E0,6.669048786E0
1.052727167E1,-2.445677042E0,6.453570843E0,6.692990780E0
1.053731820E1,-2.445677042E0,6.429628849E0,6.678625584E0
1.054729365E1,-2.440888643E0,6.429628849E0,6.645106792E0
1.055731474E1,-2.440888643E0,6.439205647E0,6.645106792E0
1.056728669E1,-2.440888643E0,6.405686855E0,6.673837185E0
1.057738526E1,-2.450465441E0,6.443994045E0,6.678625584E0
1.058741114E1,-2.426523447E0,6.424840450E0,6.649895191E0
1.059741853E1,-2.440888643E0,6.429628849E0,6.669048786E0
1.060750391E1,-2.440888643E0,6.443994045E0,6.664260387E0
1.061744624E1,-2.436100245E0,6.434417248E0,6.688202381E0
1.062754916E1,-2.431311846E0,6.420052052E0,6.659471989E0
1.063751804E1,-2.464830637E0,6.420052052E0,6.654683590E0
1.064758963E1,-2.450465441E0,6.443994045E0,6.664260387E0
1.065764468E1,-2.440888643E0,6.424840450E0,6.678625584E0
1.066764869E1,-2.416946650E0,6.429628849E0,6.683413982E0
1.067760842E1,-2.455253839E0,6.420052052E0,6.688202381E0
1.068765566E1,-2.455253839E0,6.429628849E0,6.688202381E0
1.069765249E1,-2.450465441E0,6.429628849E0,6.654683590E0
1.070773738E1,-2.455253839E0,6.434417248E0,6.649895191E0
1.071765214E1,-2.440888643E0,6.439205647E0,6.659471989E0
1.072774336E1,-2.450465441E0,6.429628849E0,6.697779179E0
1.073780310E1,-2.460042238E0,6.443994045E0,6.649895191E0
1.074773503E1,-2.450465441E0,6.429628849E0,6.645106792E0
1.075783790E1,-2.460042238E0,6.458359241E0,6.688202381E0
1.076788944E1,-2.450465441E0,6.424840450E0,6.649895191E0
1.077784957E1,-2.436100245E0,6.415263653E0,6.678625584E0
1.078793460E1,-2.455253839E0,6.400898457E0,6.649895191E0
1.079787890E1,-2.450465441E0,6.410475254E0,6.659471989E0
1.080800317E1,-2.455253839E0,6.439205647E0,6.688202381E0
1.081798960E1,-2.426523447E0,6.420052052E0,6.692990780E0
1.082801990E1,-2.440888643E0,6.434417248E0,6.659471989E0
1.083804931E1,-2.440888643E0,6.439205647E0,6.649895191E0
1.084814603E1,-2.445677042E0,6.400898457E0,6.673837185E0
1.085818123E1,-2.445677042E0,6.429628849E0,6.678625584E0
1.086815275E1,-2.421735048E0,6.448782444E0,6.654683590E0
1.087809005E1,-2.455253839E0,6.434417248E0,6.678625584E0
1.088818729E1,-2.445677042E0,6.424840450E0,6.659471989E0
1.089828212E1,-2.431311846E0,6.420052052E0,6.669048786E0
1.090829913E1,-2.436100245E0,6.434417248E0,6.673837185E0
1.091825973E1,-2.440888643E0,6.420052052E0,6.654683590E0
1.092828450E1,-2.436100245E0,6.405686855E0,6.649895191E0
1.093832405E1,-2.445677042E0,6.410475254E0,6.683413982E0
1.094838050E1,-2.440888643E0,6.443994045E0,6.659471989E0
1.095841023E1,-2.455253839E0,6.424840450E0,6.688202381E0
1.096838455E1,-2.440888643E0,6.434417248E0,6.669048786E0
1.097848198E1,-2.450465441E0,6.424840450E0,6.673837185E0
1.098848598E1,-2.469619036E0,6.439205647E0,6.649895191E0
1.099846359E1,-2.445677042E0,6.443994045E0,6.664260387E0
1.100853056E1,-2.450465441E0,6.424840450E0,6.669048786E0
1.101861696E1,-2.440888643E0,6.420052052E0,6.659471989E0
1.102862028E1,-2.464830637E0,6.448782444E0,6.688202381E0
1.103855388E1,-2.455253839E0,6.453570843E0,6.649895191E0
1.104864390E1,-2.460042238E0,6.439205647E0,6.669048786E0
1.105863050E1,-2.445677042E0,6.424840450E0,6.649895191E0
1.106868993E1,-2.426523447E0,6.429628849E0,6.664260387E0
1.107866092E1,-2.431311846E0,6.448782444E0,6.669048786E0
1.108869552E1,-2.445677042E0,6.420052052E0,6.659471989E0
1.109874668E1,-2.445677042E0,6.410475254E0,6.664260387E0
1.110869146E1,-2.455253839E0,6.448782444E0,6.673837185E0
1.111883576E1,-2.450465441E0,6.434417248E0,6.649895191E0
1.112882702E1,-2.450465441E0,6.443994045E0,6.664260387E0
1.113884502E1,-2.440888643E0,6.420052052E0,6.659471989E0
1.114890194E1,-2.445677042E0,6.439205647E0,6.659471989E0
1.115888830E1,-2.455253839E0,6.429628849E0,6.645106792E0
1.116889516E1,-2.436100245E0,6.434417248E0,6.692990780E0
1.117899998E1,-2.440888643E0,6.443994045E0,6.688202381E0
1.118896127E1,-2.445677042E0,6.439205647E0,6.678625584E0
1.119904432E1,-2.455253839E0,6.415263653E0,6.654683590E0
1.120908251E1,-2.450465441E0,6.420052052E0,6.664260387E0
1.121910999E1,-2.440888643E0,6.415263653E0,6.678625584E0
1.122909277E1,-2.450465441E0,6.434417248E0,6.664260387E0
1.123907421E1,-2.455253839E0,6.424840450E0,6.659471989E0
1.124915567E1,-2.455253839E0,6.439205647E0,6.669048786E0
1.125922216E1,-2.469619036E0,6.434417248E0,6.673837185E0
1.126922081E1,-2.445677042E0,6.410475254E0,6.659471989E0
1.127913749E1,-2.455253839E0,6.420052052E0,6.669048786E0
1.128920501E1,-2.436100245E0,6.424840450E0,6.659471989E0
1.129932048E1,-2.426523447E0,6.415263653E0,6.678625584E0
1.130934039E1,-2.445677042E0,6.434417248E0,6.654683590E0
1.131933901E1,-2.445677042E0,6.448782444E0,6.654683590E0
1.132928366E1,-2.440888643E0,6.434417248E0,6.654683590E0
1.133930609E1,-2.445677042E0,6.448782444E0,6.664260387E0
1.134941910E1,-2.445677042E0,6.410475254E0,6.645106792E0
1.135948904E1,-2.440888643E0,6.439205647E0,6.678625584E0
1.136945154E1,-2.445677042E0,6.439205647E0,6.664260387E0
1.137946861E1,-2.426523447E0,6.443994045E0,6.673837185E0
1.138952576E1,-2.460042238E0,6.439205647E0,6.683413982E0
1.139955194E1,-2.455253839E0,6.429628849E0,6.659471989E0
1.140947023E1,-2.455253839E0,6.424840450E0,6.678625584E0
1.141956475E1,-2.460042238E0,6.429628849E0,6.640318394E0
1.142957906E1,-2.450465441E0,6.448782444E0,6.678625584E0
1.143952737E1,-2.436100245E0,6.429628849E0,6.654683590E0
1.144960994E1,-2.450465441E0,6.410475254E0,6.645106792E0
1.145965515E1,-2.450465441E0,6.429628849E0,6.678625584E0
1.146964921E1,-2.431311846E0,6.448782444E0,6.673837185E0
1.147974034E1,-2.450465441E0,6.439205647E0,6.664260387E0
1.148976072E1,-2.426523447E0,6.434417248E0,6.664260387E0
1.149980703E1,-2.436100245E0,6.429628849E0,6.654683590E0
1.150975253E1,-2.455253839E0,6.439205647E0,6.654683590E0
1.151977272E1,-2.421735048E0,6.420052052E0,6.688202381E0
1.152983222E1,-2.450465441E0,6.434417248E0,6.659471989E0
1.153989489E1,-2.460042238E0,6.424840450E0,6.664260387E0
1.154985864E1,-2.440888643E0,6.420052052E0,6.649895191E0
1.155983924E1,-2.450465441E0,6.439205647E0,6.669048786E0
1.156994170E1,-2.436100245E0,6.434417248E0,6.692990780E0
1.157988016E1,-2.436100245E0,6.420052052E0,6.659471989E0
1.158994151E1,-2.426523447E0,6.448782444E0,6.664260387E0
1.160002356E1,-2.450465441E0,6.420052052E0,6.664260387E0
1.161004513E1,-2.450465441E0,6.424840450E0,6.649895191E0
1.162006027E1,-2.431311846E0,6.434417248E0,6.669048786E0
1.163001634E1,-2.455253839E0,6.424840450E0,6.678625584E0
1.164003420E1,-2.440888643E0,6.420052052E0,6.664260387E0
1.165006350E1,-2.460042238E0,6.443994045E0,6.640318394E0
1.166014556E1,-2.464830637E0,6.420052052E0,6.697779179E0
1.167015822E1,-2.455253839E0,6.443994045E0,6.688202381E0
1.168009400E1,-2.455253839E0,6.439205647E0,6.669048786E0
1.169022738E1,-2.450465441E0,6.405686855E0,6.659471989E0
1.170016719E1,-2.445677042E0,6.415263653E0,6.654683590E0
1.171019874E1,-2.445677042E0,6.453570843E0,6.678625584E0
1.172024113E1,-2.450465441E0,6.420052052E0,6.669048786E0
1.173027632E1,-2.431311846E0,6.453570843E0,6.692990780E0
1.174030697E1,-2.445677042E0,6.439205647E0,6.654683590E0
1.175025052E1,-2.464830637E0,6.415263653E0,6.683413982E0
1.176037915E1,-2.440888643E0,6.405686855E0,6.654683590E0
1.177040872E1,-2.464830637E0,6.429628849E0,6.669048786E0
1.178040258E1,-2.440888643E0,6.448782444E0,6.669048786E0
1.179039778E1,-2.460042238E0,6.453570843E0,6.645106792E0
1.180036139E1,-2.436100245E0,6.453570843E0,6.673837185E0
1.181049873E1,-2.450465441E0,6.410475254E0,6.673837185E0
1.182055976E1,-2.450465441E0,6.420052052E0,6.649895191E0
1.183049196E1,-2.464830637E0,6.424840450E0,6.669048786E0
1.184051928E1,-2.455253839E0,6.429628849E0,6.649895191E0
1.185048515E1,-2.455253839E0,6.424840450E0,6.664260387E0
1.186056030E1,-2.440888643E0,6.424840450E0,6.683413982E0
1.187058698E1,-2.431311846E0,6.448782444E0,6.683413982E0
1.188056619E1,-2.469619036E0,6.429628849E0,6.664260387E0
1.189062978E1,-2.450465441E0,6.429628849E0,6.649895191E0
1.190065650E1,-2.440888643E0,6.429628849E0,6.659471989E0
1.191075670E1,-2.455253839E0,6.429628849E0,6.673837185E0
1.192072521E1,-2.455253839E0,6.434417248E0,6.678625584E0
1.193068274E1,-2.450465441E0,6.429628849E0,6.688202381E0
1.194071187E1,-2.445677042E0,6.434417248E0,6.649895191E0
1.195075061E1,-2.445677042E0,6.424840450E0,6.664260387E0
1.196083641E1,-2.436100245E0,6.443994045E0,6.669048786E0
1.197091766E1,-2.436100245E0,6.439205647E0,6.669048786E0
1.198096921E1,-2.431311846E0,6.429628849E0,6.659471989E0
1.199086234E1,-2.455253839E0,6.434417248E0,6.673837185E0
1.199086234E1,-2.469619036E0,6.429628849E0,6.659471989E0
1.200031399E1,-2.469619036E0,6.453570843E0,6.664260387E0
1.201037845E1,-2.483984232E0,6.410475254E0,6.630741596E0
1.202041959E1,-2.455253839E0,6.415263653E0,6.630741596E0
1.203030453E1,-2.455253839E0,6.443994045E0,6.649895191E0
1.204037490E1,-2.469619036E0,6.453570843E0,6.673837185E0
1.205046242E1,-2.460042238E0,6.448782444E0,6.654683590E0
1.206055104E1,-2.455253839E0,6.443994045E0,6.649895191E0
1.207051454E1,-2.479195833E0,6.429628849E0,6.649895191E0
1.208053917E1,-2.455253839E0,6.424840450E0,6.635529995E0
1.209062326E1,-2.483984232E0,6.434417248E0,6.678625584E0
1.210062730E1,-2.483984232E0,6.429628849E0,6.664260387E0
1.211066379E1,-2.469619036E0,6.443994045E0,6.649895191E0
1.212060636E1,-2.474407434E0,6.434417248E0,6.649895191E0
1.213073731E1,-2.460042238E0,6.424840450E0,6.649895191E0
1.214069068E1,-2.469619036E0,6.415263653E0,6.649895191E0
1.215079847E1,-2.460042238E0,6.448782444E0,6.659471989E0
1.216075924E1,-2.469619036E0,6.424840450E0,6.640318394E0
1.217077325E1,-2.455253839E0,6.424840450E0,6.649895191E0
1.218069724E1,-2.460042238E0,6.429628849E0,6.664260387E0
1.219086081E1,-2.460042238E0,6.429628849E0,6.678625584E0
1.220090153E1,-2.474407434E0,6.415263653E0,6.669048786E0
1.221095270E1,-2.469619036E0,6.424840450E0,6.640318394E0
1.222097503E1,-2.440888643E0,6.429628849E0,6.645106792E0
1.223099429E1,-2.460042238E0,6.420052052E0,6.673837185E0
1.224095997E1,-2.488772631E0,6.429628849E0,6.645106792E0
1.225105323E1,-2.488772631E0,6.429628849E0,6.654683590E0
1.226106193E1,-2.469619036E0,6.429628849E0,6.649895191E0
1.227095205E1,-2.469619036E0,6.434417248E0,6.640318394E0
1.228095444E1,-2.479195833E0,6.420052052E0,6.654683590E0
1.229110499E1,-2.464830637E0,6.405686855E0,6.659471989E0
1.230103059E1,-2.450465441E0,6.434417248E0,6.669048786E0
1.231103165E1,-2.460042238E0,6.415263653E0,6.621164799E0
1.232106698E1,-2.464830637E0,6.424840450E0,6.635529995E0
1.233115878E1,-2.474407434E0,6.429628849E0,6.678625584E0
1.234119147E1,-2.440888643E0,6.405686855E0,6.664260387E0
1.235121814E1,-2.460042238E0,6.429628849E0,6.659471989E0
1.236123733E1,-2.460042238E0,6.439205647E0,6.645106792E0
1.237122543E1,-2.479195833E0,6.424840450E0,6.683413982E0
1.238131252E1,-2.469619036E0,6.400898457E0,6.659471989E0
1.239128261E1,-2.464830637E0,6.434417248E0,6.678625584E0
1.240134514E1,-2.464830637E0,6.429628849E0,6.659471989E0
1.241147498E1,-2.474407434E0,6.429628849E0,6.616376400E0
1.242142049E1,-2.469619036E0,6.453570843E0,6.640318394E0
1.243150776E1,-2.474407434E0,6.443994045E0,6.654683590E0
1.244155561E1,-2.464830637E0,6.429628849E0,6.664260387E0
1.245148464E1,-2.469619036E0,6.434417248E0,6.625953197E0
1.246159598E1,-2.483984232E0,6.429628849E0,6.630741596E0
1.247150033E1,-2.474407434E0,6.434417248E0,6.635529995E0
1.248157638E1,-2.460042238E0,6.424840450E0,6.654683590E0
1.249154536E1,-2.464830637E0,6.429628849E0,6.640318394E0
1.250161915E1,-2.464830637E0,6.439205647E0,6.645106792E0
1.251171970E1,-2.455253839E0,6.434417248E0,6.654683590E0
1.252174837E1,-2.460042238E0,6.434417248E0,6.678625584E0
1.253168468E1,-2.474407434E0,6.429628849E0,6.659471989E0
1.254182268E1,-2.488772631E0,6.448782444E0,6.640318394E0
1.255185017E1,-2.464830637E0,6.429628849E0,6.659471989E0
1.256176937E1,-2.455253839E0,6.434417248E0,6.654683590E0
1.257178846E1,-2.460042238E0,6.443994045E0,6.649895191E0
1.258186392E1,-2.455253839E0,6.424840450E0,6.669048786E0
1.259195040E1,-2.474407434E0,6.424840450E0,6.649895191E0
1.260197335E1,-2.479195833E0,6.424840450E0,6.654683590E0
1.261191068E1,-2.460042238E0,6.429628849E0,6.645106792E0
1.262203222E1,-2.455253839E0,6.429628849E0,6.654683590E0
1.263201520E1,-2.464830637E0,6.439205647E0,6.654683590E0
1.264210243E1,-2.469619036E0,6.429628849E0,6.664260387E0
1.265209244E1,-2.469619036E0,6.453570843E0,6.645106792E0
1.266208956E1,-2.474407434E0,6.434417248E0,6.649895191E0
1.267205034E1,-2.479195833E0,6.439205647E0,6.654683590E0
1.268218090E1,-2.464830637E0,6.420052052E0,6.659471989E0
1.269220055E1,-2.469619036E0,6.443994045E0,6.664260387E0
1.270213169E1,-2.479195833E0,6.420052052E0,6.654683590E0
1.271220770E1,-2.469619036E0,6.443994045E0,6.649895191E0
1.272224853E1,-2.479195833E0,6.453570843E0,6.640318394E0
1.273228428E1,-2.474407434E0,6.415263653E0,6.659471989E0
1.274223377E1,-2.474407434E0,6.443994045E0,6.659471989E0
1.275237379E1,-2.450465441E0,6.434417248E0,6.649895191E0
1.276231639E1,-2.469619036E0,6.448782444E0,6.659471989E0
1.277244956E1,-2.464830637E0,6.434417248E0,6.616376400E0
1.278246265E1,-2.474407434E0,6.429628849E0,6.669048786E0
1.279243331E1,-2.469619036E0,6.448782444E0,6.654683590E0
1.280250274E1,-2.474407434E0,6.448782444E0,6.669048786E0
1.281245248E1,-2.474407434E0,6.410475254E0,6.630741596E0
1.282254130E1,-2.479195833E0,6.424840450E0,6.649895191E0
1.283252135E1,-2.479195833E0,6.429628849E0,6.654683590E0
1.284258604E1,-2.488772631E0,6.415263653E0,6.659471989E0
1.285255259E1,-2.488772631E0,6.448782444E0,6.635529995E0
1.286254728E1,-2.474407434E0,6.434417248E0,6.616376400E0
1.287261134E1,-2.474407434E0,6.410475254E0,6.664260387E0
1.288273108E1,-2.479195833E0,6.434417248E0,6.645106792E0
1.289272213E1,-2.469619036E0,6.434417248E0,6.654683590E0
1.290267498E1,-2.460042238E0,6.439205647E0,6.630741596E0
1.291267932E1,-2.464830637E0,6.415263653E0,6.635529995E0
1.292269527E1,-2.488772631E0,6.434417248E0,6.659471989E0
1.293275472E1,-2.464830637E0,6.420052052E0,6.664260387E0
1.294276169E1,-2.483984232E0,6.458359241E0,6.673837185E0
1.295278284E1,-2.460042238E0,6.443994045E0,6.649895191E0
1.296282196E1,-2.464830637E0,6.415263653E0,6.654683590E0
1.297285671E1,-2.469619036E0,6.420052052E0,6.673837185E0
1.298293619E1,-2.479195833E0,6.424840450E0,6.678625584E0
1.299289309E1,-2.483984232E0,6.439205647E0,6.659471989E0
1.300296927E1,-2.464830637E0,6.429628849E0,6.640318394E0
1.301294701E1,-2.464830637E0,6.443994045E0,6.621164799E0
1.302308843E1,-2.469619036E0,6.410475254E0,6.654683590E0
1.303301080E1,-2.450465441E0,6.429628849E0,6.645106792E0
1.304302597E1,-2.474407434E0,6.448782444E0,6.640318394E0
1.305308122E1,-2.474407434E0,6.429628849E0,6.635529995E0
1.306309353E1,-2.464830637E0,6.424840450E0,6.645106792E0
1.307324373E1,-2.483984232E0,6.420052052E0,6.649895191E0
1.308321545E1,-2.479195833E0,6.443994045E0,6.640318394E0
1.309324688E1,-2.483984232E0,6.424840450E0,6.649895191E0
1.310320613E1,-2.488772631E0,6.453570843E0,6.645106792E0
1.311325498E1,-2.474407434E0,6.439205647E0,6.625953197E0
1.312331720E1,-2.483984232E0,6.439205647E0,6.664260387E0
1.313333332E1,-2.469619036E0,6.443994045E0,6.654683590E0
1.314331396E1,-2.479195833E0,6.443994045E0,6.645106792E0
1.315335717E1,-2.483984232E0,6.420052052E0,6.654683590E0
1.316336645E1,-2.464830637E0,6.443994045E0,6.625953197E0
1.317341401E1,-2.479195833E0,6.443994045E0,6.664260387E0
1.318341941E1,-2.460042238E0,6.420052052E0,6.659471989E0
1.319355315E1,-2.474407434E0,6.420052052E0,6.654683590E0
1.320359935E1,-2.479195833E0,6.429628849E0,6.654683590E0
1.321365687E1,-2.469619036E0,6.434417248E0,6.664260387E0
1.322354525E1,-2.474407434E0,6.434417248E0,6.664260387E0
1.323372668E1,-2.460042238E0,6.443994045E0,6.678625584E0
1.324366864E1,-2.483984232E0,6.439205647E0,6.649895191E0
1.325381980E1,-2.460042238E0,6.439205647E0,6.649895191E0
1.326367659E1,-2.474407434E0,6.434417248E0,6.669048786E0
1.327367018E1,-2.460042238E0,6.424840450E0,6.630741596E0
1.328368800E1,-2.469619036E0,6.424840450E0,6.669048786E0
1.329373565E1,-2.469619036E0,6.434417248E0,6.659471989E0
1.330374395E1,-2.464830637E0,6.429628849E0,6.640318394E0
1.331377334E1,-2.455253839E0,6.424840450E0,6.630741596E0
1.332379241E1,-2.455253839E0,6.434417248E0,6.649895191E0
1.333386044E1,-2.474407434E0,6.443994045E0,6.654683590E0
1.334384762E1,-2.479195833E0,6.424840450E0,6.673837185E0
1.335391714E1,-2.450465441E0,6.434417248E0,6.649895191E0
1.336389264E1,-2.469619036E0,6.424840450E0,6.649895191E0
1.337404500E1,-2.474407434E0,6.410475254E0,6.664260387E0
1.338396340E1,-2.455253839E0,6.429628849E0,6.635529995E0
1.339402959E1,-2.483984232E0,6.415263653E0,6.635529995E0
1.340400674E1,-2.464830637E0,6.424840450E0,6.625953197E0
1.341405196E1,-2.464830637E0,6.424840450E0,6.669048786E0
1.342406425E1,-2.469619036E0,6.405686855E0,6.630741596E0
1.343409959E1,-2.464830637E0,6.424840450E0,6.630741596E0
1.344412257E1,-2.464830637E0,6.424840450E0,6.645106792E0
1.345417826E1,-2.479195833E0,6.458359241E0,6.645106792E0
1.346418529E1,-2.479195833E0,6.448782444E0,6.659471989E0
1.347421246E1,-2.474407434E0,6.429628849E0,6.678625584E0
1.348424510E1,-2.479195833E0,6.429628849E0,6.645106792E0
1.349429676E1,-2.479195833E0,6.420052052E0,6.625953197E0
1.350432349E1,-2.464830637E0,6.448782444E0,6.621164799E0
1.351433125E1,-2.469619036E0,6.410475254E0,6.645106792E0
1.352436334E1,-2.483984232E0,6.443994045E0,6.659471989E0
1.353441297E1,-2.455253839E0,6.429628849E0,6.673837185E0
1.354454783E1,-2.479195833E0,6.458359241E0,6.640318394E0
1.355447386E1,-2.488772631E0,6.424840450E0,6.673837185E0
1.356448271E1,-2.474407434E0,6.443994045E0,6.669048786E0
1.357453288E1,-2.469619036E0,6.434417248E0,6.654683590E0
1.358455521E1,-2.464830637E0,6.415263653E0,6.664260387E0
1.359463552E1,-2.474407434E0,6.429628849E0,6.621164799E0
1.360460483E1,-2.469619036E0,6.434417248E0,6.649895191E0
1.361464357E1,-2.469619036E0,6.424840450E0,6.673837185E0
1.362473784E1,-2.455253839E0,6.415263653E0,6.649895191E0
1.363470554E1,-2.450465441E0,6.410475254E0,6.635529995E0
1.364472721E1,-2.474407434E0,6.448782444E0,6.640318394E0
1.365478200E1,-2.479195833E0,6.443994045E0,6.664260387E0
1.366485214E1,-2.469619036E0,6.439205647E0,6.640318394E0
1.367497961E1,-2.464830637E0,6.434417248E0,6.649895191E0
1.368486120E1,-2.469619036E0,6.434417248E0,6.640318394E0
1.369490415E1,-2.455253839E0,6.429628849E0,6.625953197E0
1.370491447E1,-2.469619036E0,6.443994045E0,6.649895191E0
1.371500381E1,-2.464830637E0,6.424840450E0,6.664260387E0
1.372498243E1,-2.474407434E0,6.439205647E0,6.649895191E0
1.373504511E1,-2.460042238E0,6.424840450E0,6.630741596E0
1.374503945E1,-2.483984232E0,6.434417248E0,6.621164799E0
1.375507132E1,-2.474407434E0,6.439205647E0,6.640318394E0
1.376509517E1,-2.464830637E0,6.439205647E0,6.640318394E0
1.377521720E1,-2.464830637E0,6.429628849E0,6.625953197E0
1.378516043E1,-2.469619036E0,6.439205647E0,6.678625584E0
1.379523745E1,-2.474407434E0,6.420052052E0,6.664260387E0
1.380528253E1,-2.464830637E0,6.429628849E0,6.669048786E0
1.381524481E1,-2.455253839E0,6.415263653E0,6.649895191E0
1.382526506E1,-2.460042238E0,6.434417248E0,6.649895191E0
1.383536285E1,-2.460042238E0,6.429628849E0,6.664260387E0
1.384532370E1,-2.455253839E0,6.453570843E0,6.678625584E0
1.385536894E1,-2.455253839E0,6.458359241E0,6.664260387E0
1.386538805E1,-2.460042238E0,6.420052052E0,6.673837185E0
1.387544683E1,-2.483984232E0,6.420052052E0,6.645106792E0
1.388543837E1,-2.460042238E0,6.429628849E0,6.659471989E0
1.389554392E1,-2.460042238E0,6.420052052E0,6.645106792E0
1.390550622E1,-2.469619036E0,6.439205647E0,6.635529995E0
1.391564531E1,-2.455253839E0,6.439205647E0,6.683413982E0
1.392557108E1,-2.460042238E0,6.424840450E0,6.625953197E0
1.393563428E1,-2.469619036E0,6.424840450E0,6.683413982E0
1.394568350E1,-2.464830637E0,6.443994045E0,6.659471989E0
1.395565453E1,-2.469619036E0,6.429628849E0,6.659471989E0
1.396567563E1,-2.464830637E0,6.443994045E0,6.645106792E0
1.397573433E1,-2.498349428E0,6.439205647E0,6.664260387E0
1.398574475E1,-2.445677042E0,6.448782444E0,6.635529995E0
1.399576655E1,-2.469619036E0,6.472724438E0,6.635529995E0
1.400578792E1,-2.483984232E0,6.424840450E0,6.645106792E0
1.401583411E1,-2.460042238E0,6.439205647E0,6.654683590E0
1.402585483E1,-2.479195833E0,6.443994045E0,6.669048786E0
1.403588495E1,-2.469619036E0,6.458359241E0,6.649895191E0
1.404591975E1,-2.488772631E0,6.443994045E0,6.649895191E0
1.405595238E1,-2.479195833E0,6.434417248E0,6.635529995E0
1.406596156E1,-2.469619036E0,6.458359241E0,6.683413982E0
1.407598975E1,-2.460042238E0,6.429628849E0,6.645106792E0
1.408601300E1,-2.479195833E0,6.410475254E0,6.649895191E0
1.409615853E1,-2.460042238E0,6.420052052E0,6.645106792E0
1.410607651E1,-2.469619036E0,6.439205647E0,6.659471989E0
1.411615644E1,-2.445677042E0,6.424840450E0,6.649895191E0
1.412615177E1,-2.479195833E0,6.448782444E0,6.673837185E0
1.413614474E1,-2.469619036E0,6.400898457E0,6.640318394E0
1.414620205E1,-2.469619036E0,6.429628849E0,6.645106792E0
1.415621407E1,-2.469619036E0,6.429628849E0,6.669048786E0
1.416626951E1,-2.479195833E0,6.424840450E0,6.664260387E0
1.417632884E1,-2.469619036E0,6.443994045E0,6.669048786E0
1.418632195E1,-2.474407434E0,6.424840450E0,6.659471989E0
1.419634971E1,-2.460042238E0,6.410475254E0,6.659471989E0
1.420637715E1,-2.474407434E0,6.439205647E0,6.659471989E0
1.421635247E1,-2.469619036E0,6.439205647E0,6.664260387E0
1.422644618E1,-2.469619036E0,6.420052052E0,6.640318394E0
1.423647847E1,-2.460042238E0,6.434417248E0,6.659471989E0
1.424644839E1,-2.460042238E0,6.439205647E0,6.669048786E0
1.425646042E1,-2.455253839E0,6.415263653E0,6.649895191E0
1.426648482E1,-2.483984232E0,6.424840450E0,6.654683590E0
1.427651301E1,-2.464830637E0,6.453570843E0,6.673837185E0
1.428655015E1,-2.469619036E0,6.467936039E0,6.640318394E0
1.429656833E1,-2.483984232E0,6.415263653E0,6.649895191E0
1.430659122E1,-2.450465441E0,6.448782444E0,6.640318394E0
1.431669332E1,-2.464830637E0,6.424840450E0,6.640318394E0
1.432675960E1,-2.450465441E0,6.424840450E0,6.659471989E0
1.433673872E1,-2.498349428E0,6.429628849E0,6.645106792E0
1.434670155E1,-2.474407434E0,6.458359241E0,6.630741596E0
1.435672406E1,-2.464830637E0,6.434417248E0,6.621164799E0
1.436674388E1,-2.436100245E0,6.458359241E0,6.645106792E0
1.437677229E1,-2.460042238E0,6.424840450E0,6.683413982E0
1.438683652E1,-2.464830637E0,6.429628849E0,6.640318394E0
1.439687451E1,-2.455253839E0,6.448782444E0,6.664260387E0
1.440688659E1,-2.464830637E0,6.439205647E0,6.649895191E0
1.441692424E1,-2.474407434E0,6.458359241E0,6.625953197E0
1.442693758E1,-2.479195833E0,6.429628849E0,6.649895191E0
1.443697645E1,-2.474407434E0,6.443994045E0,6.669048786E0
1.444696655E1,-2.469619036E0,6.429628849E0,6.645106792E0
1.445701982E1,-2.469619036E0,6.434417248E0,6.659471989E0
1.446698792E1,-2.455253839E0,6.424840450E0,6.625953197E0
1.447706585E1,-2.460042238E0,6.420052052E0,6.640318394E0
1.448712099E1,-2.488772631E0,6.448782444E0,6.654683590E0
1.449706506E1,-2.479195833E0,6.439205647E0,6.640318394E0
1.450713588E1,-2.455253839E0,6.434417248E0,6.635529995E0
1.451723086E1,-2.460042238E0,6.439205647E0,6.678625584E0
1.452721895E1,-2.464830637E0,6.429628849E0,6.664260387E0
1.453724167E1,-2.474407434E0,6.448782444E0,6.625953197E0
1.454723770E1,-2.479195833E0,6.439205647E0,6.635529995E0
1.455721504E1,-2.474407434E0,6.448782444E0,6.649895191E0
1.456727149E1,-2.474407434E0,6.443994045E0,6.649895191E0
1.457731867E1,-2.460042238E0,6.410475254E0,6.669048786E0
1.458729309E1,-2.455253839E0,6.439205647E0,6.635529995E0
1.459738231E1,-2.460042238E0,6.439205647E0,6.654683590E0
1.460738981E1,-2.474407434E0,6.443994045E0,6.669048786E0
1.461742662E1,-2.479195833E0,6.434417248E0,6.635529995E0
1.462749494E1,-2.474407434E0,6.434417248E0,6.621164799E0
1.463750637E1,-2.464830637E0,6.448782444E0,6.630741596E0
1.464746789E1,-2.464830637E0,6.443994045E0,6.688202381E0
1.465752062E1,-2.455253839E0,6.424840450E0,6.673837185E0
1.466749356E1,-2.464830637E0,6.429628849E0,6.649895191E0
1.467758330E1,-2.474407434E0,6.439205647E0,6.640318394E0
1.468768239E1,-2.469619036E0,6.429628849E0,6.659471989E0
1.469757891E1,-2.469619036E0,6.443994045E0,6.630741596E0
1.470765414E1,-2.474407434E0,6.429628849E0,6.616376400E0
1.471770383E1,-2.479195833E0,6.434417248E0,6.645106792E0
1.472772386E1,-2.455253839E0,6.434417248E0,6.673837185E0
1.473773744E1,-2.460042238E0,6.424840450E0,6.678625584E0
1.474781169E1,-2.479195833E0,6.439205647E0,6.649895191E0
1.475775467E1,-2.460042238E0,6.439205647E0,6.635529995E0
1.476782537E1,-2.474407434E0,6.429628849E0,6.635529995E0
1.477783416E1,-2.474407434E0,6.453570843E0,6.664260387E0
1.478791846E1,-2.474407434E0,6.434417248E0,6.630741596E0
1.479791203E1,-2.460042238E0,6.443994045E0,6.635529995E0
1.480799008E1,-2.474407434E0,6.443994045E0,6.625953197E0
1.481800544E1,-2.469619036E0,6.420052052E0,6.659471989E0
1.482795233E1,-2.469619036E0,6.443994045E0,6.673837185E0
1.483795112E1,-2.460042238E0,6.453570843E0,6.654683590E0
1.484802805E1,-2.474407434E0,6.443994045E0,6.630741596E0
1.485797530E1,-2.464830637E0,6.434417248E0,6.625953197E0
1.486801116E1,-2.464830637E0,6.448782444E0,6.683413982E0
1.487806714E1,-2.469619036E0,6.420052052E0,6.702567577E0
1.488816144E1,-2.469619036E0,6.439205647E0,6.640318394E0
1.489813348E1,-2.464830637E0,6.448782444E0,6.640318394E0
1.490820417E1,-2.460042238E0,6.429628849E0,6.635529995E0
1.491812625E1,-2.474407434E0,6.443994045E0,6.664260387E0
1.492827682E1,-2.460042238E0,6.453570843E0,6.630741596E0
1.493828767E1,-2.474407434E0,6.434417248E0,6.669048786E0
1.494830162E1,-2.460042238E0,6.439205647E0,6.645106792E0
1.495827214E1,-2.445677042E0,6.439205647E0,6.654683590E0
1.496826157E1,-2.455253839E0,6.424840450E0,6.673837185E0
1.497827061E1,-2.474407434E0,6.439205647E0,6.659471989E0
1.498842118E1,-2.464830637E0,6.463147640E0,6.678625584E0
1.499840377E1,-2.464830637E0,6.458359241E0,6.654683590E0
1.500848445E1,-2.474407434E0,6.415263653E0,6.664260387E0
1.501849671E1,-2.445677042E0,6.443994045E0,6.645106792E0
1.502851772E1,-2.464830637E0,6.424840450E0,6.649895191E0
1.503850512E1,-2.464830637E0,6.439205647E0,6.669048786E0
1.504853779E1,-2.469619036E0,6.424840450E0,6.640318394E0
1.505853217E1,-2.479195833E0,6.429628849E0,6.630741596E0
1.506862928E1,-2.460042238E0,6.420052052E0,6.635529995E0
1.507860136E1,-2.464830637E0,6.434417248E0,6.669048786E0
1.508866824E1,-2.464830637E0,6.443994045E0,6.645106792E0
1.509863867E1,-2.469619036E0,6.420052052E0,6.649895191E0
1.510870718E1,-2.479195833E0,6.448782444E0,6.635529995E0
1.511868731E1,-2.479195833E0,6.429628849E0,6.659471989E0
1.512872864E1,-2.479195833E0,6.424840450E0,6.659471989E0
1.513874906E1,-2.464830637E0,6.429628849E0,6.640318394E0
1.514887192E1,-2.445677042E0,6.429628849E0,6.649895191E0
1.515876023E1,-2.469619036E0,6.405686855E0,6.630741596E0
1.516890067E1,-2.464830637E0,6.448782444E0,6.659471989E0
1.517885555E1,-2.488772631E0,6.448782444E0,6.678625584E0
1.518890637E1,-2.479195833E0,6.439205647E0,6.630741596E0
1.519896771E1,-2.464830637E0,6.434417248E0,6.635529995E0
1.520898969E1,-2.460042238E0,6.434417248E0,6.635529995E0
1.521896648E1,-2.445677042E0,6.443994045E0,6.664260387E0
1.522904862E1,-2.474407434E0,6.439205647E0,6.635529995E0
1.523907503E1,-2.460042238E0,6.448782444E0,6.654683590E0
1.524900895E1,-2.474407434E0,6.434417248E0,6.640318394E0
1.525906984E1,-2.474407434E0,6.439205647E0,6.640318394E0
1.526915750E1,-2.469619036E0,6.420052052E0,6.649895191E0
1.527910304E1,-2.464830637E0,6.415263653E0,6.654683590E0
1.528915578E1,-2.479195833E0,6.439205647E0,6.625953197E0
1.529925521E1,-2.479195833E0,6.424840450E0,6.678625584E0
1.530924755E1,-2.474407434E0,6.443994045E0,6.645106792E0
1.531927758E1,-2.469619036E0,6.429628849E0,6.635529995E0
1.532934102E1,-2.474407434E0,6.429628849E0,6.649895191E0
1.533934326E1,-2.479195833E0,6.458359241E0,6.649895191E0
1.534931946E1,-2.460042238E0,6.434417248E0,6.654683590E0
1.535935654E1,-2.455253839E0,6.443994045E0,6.659471989E0
1.536944267E1,-2.474407434E0,6.439205647E0,6.645106792E0
1.537945058E1,-2.455253839E0,6.439205647E0,6.640318394E0
1.538947973E1,-2.483984232E0,6.448782444E0,6.669048786E0
1.539939644E1,-2.474407434E0,6.439205647E0,6.669048786E0
1.540955276E1,-2.464830637E0,6.439205647E0,6.654683590E0
1.541956950E1,-2.474407434E0,6.424840450E0,6.621164799E0
1.542951662E1,-2.464830637E0,6.448782444E0,6.669048786E0
1.543953553E1,-2.469619036E0,6.443994045E0,6.645106792E0
1.544957100E1,-2.464830637E0,6.458359241E0,6.659471989E0
1.545961578E1,-2.445677042E0,6.429628849E0,6.664260387E0
1.546968675E1,-2.479195833E0,6.429628849E0,6.664260387E0
1.547967065E1,-2.474407434E0,6.443994045E0,6.664260387E0
1.548969504E1,-2.474407434E0,6.453570843E0,6.635529995E0
1.549972664E1,-2.460042238E0,6.429628849E0,6.673837185E0
1.550966989E1,-2.483984232E0,6.443994045E0,6.645106792E0
1.551968882E1,-2.474407434E0,6.443994045E0,6.669048786E0
1.552979325E1,-2.445677042E0,6.453570843E0,6.649895191E0
1.553990427E1,-2.474407434E0,6.443994045E0,6.673837185E0
1.554988585E1,-2.469619036E0,6.415263653E0,6.645106792E0
1.555979039E1,-2.464830637E0,6.434417248E0,6.635529995E0
1.556983142E1,-2.464830637E0,6.439205647E0,6.659471989E0
1.557996230E1,-2.464830637E0,6.448782444E0,6.635529995E0
1.558999857E1,-2.474407434E0,6.453570843E0,6.678625584E0
1.559997313E1,-2.464830637E0,6.434417248E0,6.654683590E0
1.560993432E1,-2.469619036E0,6.434417248E0,6.654683590E0
1.562007595E1,-2.455253839E0,6.434417248E0,6.659471989E0
1.562996657E1,-2.464830637E0,6.453570843E0,6.673837185E0
1.564003219E1,-2.474407434E0,6.434417248E0,6.669048786E0
1.565002767E1,-2.479195833E0,6.429628849E0,6.664260387E0
1.566013679E1,-2.464830637E0,6.429628849E0,6.640318394E0
1.567011602E1,-2.460042238E0,6.420052052E0,6.678625584E0
1.568009751E1,-2.460042238E0,6.424840450E0,6.640318394E0
1.569012895E1,-2.450465441E0,6.434417248E0,6.649895191E0
1.570019466E1,-2.479195833E0,6.424840450E0,6.640318394E0
1.571027601E1,-2.483984232E0,6.439205647E0,6.635529995E0
1.572026325E1,-2.464830637E0,6.434417248E0,6.654683590E0
1.573030356E1,-2.469619036E0,6.443994045E0,6.678625584E0
1.574029443E1,-2.464830637E0,6.429628849E0,6.649895191E0
1.575036986E1,-2.460042238E0,6.443994045E0,6.640318394E0
1.576039909E1,-2.474407434E0,6.420052052E0,6.649895191E0
1.577045363E1,-2.474407434E0,6.420052052E0,6.645106792E0
1.578045591E1,-2.474407434E0,6.429628849E0,6.630741596E0
1.579042437E1,-2.479195833E0,6.429628849E0,6.649895191E0
1.580045327E1,-2.474407434E0,6.434417248E0,6.635529995E0
1.581052219E1,-2.474407434E0,6.448782444E0,6.640318394E0
1.582049233E1,-2.483984232E0,6.420052052E0,6.659471989E0
1.583051561E1,-2.479195833E0,6.448782444E0,6.640318394E0
1.584056232E1,-2.445677042E0,6.434417248E0,6.640318394E0
1.585060317E1,-2.488772631E0,6.448782444E0,6.635529995E0
1.586053521E1,-2.469619036E0,6.424840450E0,6.654683590E0
1.587061170E1,-2.469619036E0,6.424840450E0,6.654683590E0
1.588058172E1,-2.464830637E0,6.429628849E0,6.630741596E0
1.589062087E1,-2.469619036E0,6.443994045E0,6.645106792E0
1.590064151E1,-2.450465441E0,6.434417248E0,6.664260387E0
1.591071794E1,-2.474407434E0,6.448782444E0,6.630741596E0
1.592080192E1,-2.469619036E0,6.448782444E0,6.654683590E0
1.593077767E1,-2.469619036E0,6.439205647E0,6.664260387E0
1.594080666E1,-2.460042238E0,6.420052052E0,6.664260387E0
1.595088956E1,-2.469619036E0,6.453570843E0,6.645106792E0
1.596085384E1,-2.483984232E0,6.429628849E0,6.630741596E0
1.597085027E1,-2.445677042E0,6.443994045E0,6.673837185E0
1.598084575E1,-2.469619036E0,6.434417248E0,6.649895191E0
1.598084575E1,-2.503137827E0,6.400898457E0,6.645106792E0
1.599071929E1,-2.498349428E0,6.424840450E0,6.659471989E0
1.600087044E1,-2.503137827E0,6.443994045E0,6.621164799E0
1.601077533E1,-2.503137827E0,6.439205647E0,6.645106792E0
1.602082320E1,-2.488772631E0,6.420052052E0,6.645106792E0
1.603090792E1,-2.512714624E0,6.429628849E0,6.611588001E0
1.604089422E1,-2.517503023E0,6.429628849E0,6.664260387E0
1.605085397E1,-2.479195833E0,6.443994045E0,6.640318394E0
1.606092053E1,-2.498349428E0,6.434417248E0,6.621164799E0
1.607094216E1,-2.503137827E0,6.434417248E0,6.621164799E0
1.608105559E1,-2.493561029E0,6.439205647E0,6.659471989E0
1.609107477E1,-2.503137827E0,6.443994045E0,6.673837185E0
1.610102246E1,-2.493561029E0,6.434417248E0,6.659471989E0
1.611105445E1,-2.503137827E0,6.439205647E0,6.664260387E0
1.612114826E1,-2.493561029E0,6.439205647E0,6.649895191E0
1.613118120E1,-2.503137827E0,6.439205647E0,6.640318394E0
1.614113456E1,-2.503137827E0,6.434417248E0,6.649895191E0
1.615116979E1,-2.498349428E0,6.443994045E0,6.669048786E0
1.616111529E1,-2.493561029E0,6.429628849E0,6.630741596E0
1.617127982E1,-2.498349428E0,6.424840450E0,6.659471989E0
1.618125916E1,-2.498349428E0,6.429628849E0,6.621164799E0
1.619132247E1,-2.488772631E0,6.434417248E0,6.630741596E0
1.620135293E1,-2.493561029E0,6.429628849E0,6.649895191E0
1.621138561E1,-2.507926226E0,6.429628849E0,6.630741596E0
1.622141238E1,-2.498349428E0,6.405686855E0,6.625953197E0
1.623144520E1,-2.498349428E0,6.415263653E0,6.659471989E0
1.624146395E1,-2.488772631E0,6.439205647E0,6.649895191E0
1.625151227E1,-2.503137827E0,6.424840450E0,6.645106792E0
1.626145434E1,-2.507926226E0,6.429628849E0,6.654683590E0
1.627153749E1,-2.503137827E0,6.434417248E0,6.635529995E0
1.628148974E1,-2.517503023E0,6.434417248E0,6.649895191E0
1.629142977E1,-2.503137827E0,6.439205647E0,6.640318394E0
1.630146510E1,-2.507926226E0,6.463147640E0,6.649895191E0
1.631154839E1,-2.498349428E0,6.448782444E0,6.630741596E0
1.632165826E1,-2.512714624E0,6.424840450E0,6.645106792E0
1.633168065E1,-2.498349428E0,6.420052052E0,6.635529995E0
1.634156911E1,-2.512714624E0,6.439205647E0,6.654683590E0
1.635156074E1,-2.503137827E0,6.434417248E0,6.630741596E0
1.636165736E1,-2.503137827E0,6.429628849E0,6.640318394E0
1.637173313E1,-2.517503023E0,6.439205647E0,6.621164799E0
1.638169221E1,-2.503137827E0,6.405686855E0,6.659471989E0
1.639171904E1,-2.493561029E0,6.410475254E0,6.664260387E0
1.640176760E1,-2.503137827E0,6.415263653E0,6.630741596E0
1.641171734E1,-2.507926226E0,6.463147640E0,6.649895191E0
1.642173541E1,-2.493561029E0,6.439205647E0,6.640318394E0
1.643189765E1,-2.503137827E0,6.458359241E0,6.640318394E0
1.644193349E1,-2.498349428E0,6.424840450E0,6.625953197E0
1.645196588E1,-2.507926226E0,6.434417248E0,6.635529995E0
1.646190740E1,-2.503137827E0,6.420052052E0,6.630741596E0
1.647199998E1,-2.517503023E0,6.434417248E0,6.635529995E0
1.648199688E1,-2.503137827E0,6.439205647E0,6.649895191E0
1.649206607E1,-2.493561029E0,6.453570843E0,6.630741596E0
1.650203636E1,-2.488772631E0,6.439205647E0,6.635529995E0
1.651199644E1,-2.517503023E0,6.429628849E0,6.625953197E0
1.652206515E1,-2.517503023E0,6.434417248E0,6.654683590E0
1.653203548E1,-2.512714624E0,6.429628849E0,6.664260387E0
1.654215910E1,-2.479195833E0,6.424840450E0,6.654683590E0
1.655217252E1,-2.503137827E0,6.429628849E0,6.635529995E0
1.656220545E1,-2.493561029E0,6.424840450E0,6.640318394E0
1.657219604E1,-2.498349428E0,6.424840450E0,6.640318394E0
1.658221864E1,-2.503137827E0,6.434417248E0,6.606799603E0
1.659223670E1,-2.507926226E0,6.410475254E0,6.625953197E0
1.660227434E1,-2.493561029E0,6.420052052E0,6.630741596E0
1.661228497E1,-2.507926226E0,6.420052052E0,6.630741596E0
1.662231199E1,-2.493561029E0,6.448782444E0,6.640318394E0
1.663234545E1,-2.493561029E0,6.439205647E0,6.640318394E0
1.664234208E1,-2.498349428E0,6.448782444E0,6.635529995E0
1.665243803E1,-2.503137827E0,6.429628849E0,6.645106792E0
1.666240764E1,-2.517503023E0,6.424840450E0,6.649895191E0
1.667249654E1,-2.498349428E0,6.439205647E0,6.635529995E0
1.668251564E1,-2.493561029E0,6.443994045E0,6.611588001E0
1.669242635E1,-2.498349428E0,6.439205647E0,6.649895191E0
1.670244958E1,-2.512714624E0,6.463147640E0,6.635529995E0
1.671259423E1,-2.507926226E0,6.424840450E0,6.645106792E0
1.672255897E1,-2.503137827E0,6.429628849E0,6.654683590E0
1.673258531E1,-2.507926226E0,6.424840450E0,6.645106792E0
1.674261247E1,-2.507926226E0,6.424840450E0,6.635529995E0
1.675271205E1,-2.498349428E0,6.443994045E0,6.635529995E0
1.676273094E1,-2.507926226E0,6.424840450E0,6.640318394E0
1.677275535E1,-2.503137827E0,6.424840450E0,6.664260387E0
1.678265838E1,-2.488772631E0,6.420052052E0,6.630741596E0
1.679281553E1,-2.503137827E0,6.439205647E0,6.645106792E0
1.680272063E1,-2.498349428E0,6.420052052E0,6.640318394E0
1.681282509E1,-2.512714624E0,6.434417248E0,6.649895191E0
1.682275903E1,-2.493561029E0,6.405686855E0,6.669048786E0
1.683278391E1,-2.493561029E0,6.424840450E0,6.640318394E0
1.684279432E1,-2.498349428E0,6.424840450E0,6.625953197E0
1.685288897E1,-2.498349428E0,6.448782444E0,6.654683590E0
1.686295650E1,-2.517503023E0,6.434417248E0,6.645106792E0
1.687295264E1,-2.498349428E0,6.410475254E0,6.649895191E0
1.688299668E1,-2.503137827E0,6.439205647E0,6.645106792E0
1.689301943E1,-2.498349428E0,6.443994045E0,6.635529995E0
1.690296064E1,-2.493561029E0,6.448782444E0,6.664260387E0
1.691303917E1,-2.483984232E0,6.443994045E0,6.654683590E0
1.692307515E1,-2.512714624E0,6.424840450E0,6.673837185E0
1.693304299E1,-2.522291422E0,6.429628849E0,6.673837185E0
1.694311450E1,-2.493561029E0,6.443994045E0,6.625953197E0
1.695308334E1,-2.488772631E0,6.415263653E0,6.640318394E0
1.696321465E1,-2.498349428E0,6.420052052E0,6.630741596E0
1.697315826E1,-2.483984232E0,6.439205647E0,6.654683590E0
1.698319561E1,-2.507926226E0,6.458359241E0,6.640318394E0
1.699316637E1,-2.498349428E0,6.429628849E0,6.664260387E0
1.700323741E1,-2.507926226E0,6.453570843E0,6.621164799E0
1.701328781E1,-2.488772631E0,6.439205647E0,6.640318394E0
1.702325183E1,-2.483984232E0,6.420052052E0,6.654683590E0
1.703331388E1,-2.498349428E0,6.420052052E0,6.635529995E0
1.704333408E1,-2.512714624E0,6.424840450E0,6.630741596E0
1.705338510E1,-2.512714624E0,6.434417248E0,6.635529995E0
1.706335269E1,-2.507926226E0,6.453570843E0,6.659471989E0
1.707339580E1,-2.498349428E0,6.434417248E0,6.673837185E0
1.708342376E1,-2.488772631E0,6.443994045E0,6.630741596E0
1.709352371E1,-2.503137827E0,6.443994045E0,6.649895191E0
1.710346852E1,-2.512714624E0,6.439205647E0,6.649895191E0
1.711349886E1,-2.483984232E0,6.420052052E0,6.640318394E0
1.712358046E1,-2.531868219E0,6.439205647E0,6.649895191E0
1.713362196E1,-2.512714624E0,6.424840450E0,6.640318394E0
1.714353533E1,-2.498349428E0,6.405686855E0,6.640318394E0
1.715363960E1,-2.498349428E0,6.439205647E0,6.635529995E0
1.716367699E1,-2.493561029E0,6.434417248E0,6.630741596E0
1.717373428E1,-2.498349428E0,6.420052052E0,6.649895191E0
1.718363267E1,-2.493561029E0,6.424840450E0,6.635529995E0
1.719370293E1,-2.493561029E0,6.453570843E0,6.654683590E0
1.720370200E1,-2.517503023E0,6.424840450E0,6.616376400E0
1.721383042E1,-2.503137827E0,6.443994045E0,6.640318394E0
1.722387233E1,-2.503137827E0,6.420052052E0,6.649895191E0
1.723381288E1,-2.479195833E0,6.429628849E0,6.635529995E0
1.724382762E1,-2.507926226E0,6.429628849E0,6.649895191E0
1.725384903E1,-2.503137827E0,6.424840450E0,6.664260387E0
1.726380622E1,-2.503137827E0,6.429628849E0,6.645106792E0
1.727381511E1,-2.507926226E0,6.443994045E0,6.597222805E0
1.728389107E1,-2.503137827E0,6.448782444E0,6.621164799E0
1.729394557E1,-2.507926226E0,6.434417248E0,6.621164799E0
1.730401251E1,-2.507926226E0,6.448782444E0,6.640318394E0
1.731392293E1,-2.493561029E0,6.424840450E0,6.640318394E0
1.732396567E1,-2.498349428E0,6.424840450E0,6.635529995E0
1.733397721E1,-2.512714624E0,6.443994045E0,6.625953197E0
1.734404142E1,-2.507926226E0,6.434417248E0,6.630741596E0
1.735407764E1,-2.507926226E0,6.439205647E0,6.649895191E0
1.736403447E1,-2.503137827E0,6.420052052E0,6.635529995E0
1.737412116E1,-2.479195833E0,6.439205647E0,6.621164799E0
1.738415113E1,-2.503137827E0,6.405686855E0,6.640318394E0
1.739410410E1,-2.507926226E0,6.434417248E0,6.625953197E0
1.740417790E1,-2.517503023E0,6.424840450E0,6.635529995E0
1.741428649E1,-2.503137827E0,6.453570843E0,6.640318394E0
1.742428542E1,-2.507926226E0,6.453570843E0,6.640318394E0
1.743426649E1,-2.488772631E0,6.429628849E0,6.635529995E0
1.744429540E1,-2.517503023E0,6.434417248E0,6.659471989E0
1.745431199E1,-2.483984232E0,6.448782444E0,6.649895191E0
1.746433105E1,-2.498349428E0,6.424840450E0,6.640318394E0
1.747430281E1,-2.488772631E0,6.420052052E0,6.659471989E0
1.748445391E1,-2.507926226E0,6.434417248E0,6.640318394E0
1.749443601E1,-2.503137827E0,6.443994045E0,6.625953197E0
1.750448550E1,-2.498349428E0,6.439205647E0,6.645106792E0
1.751442880E1,-2.507926226E0,6.463147640E0,6.630741596E0
1.752452992E1,-2.507926226E0,6.415263653E0,6.621164799E0
1.753443596E1,-2.517503023E0,6.429628849E0,6.635529995E0
1.754451094E1,-2.493561029E0,6.415263653E0,6.621164799E0
1.755453584E1,-2.522291422E0,6.439205647E0,6.659471989E0
1.756463467E1,-2.527079821E0,6.439205647E0,6.645106792E0
1.757465719E1,-2.512714624E0,6.443994045E0,6.621164799E0
1.758462816E1,-2.498349428E0,6.429628849E0,6.625953197E0
1.759458431E1,-2.507926226E0,6.448782444E0,6.640318394E0
1.760471946E1,-2.493561029E0,6.429628849E0,6.630741596E0
1.761477003E1,-2.498349428E0,6.453570843E0,6.640318394E0
1.762471652E1,-2.503137827E0,6.434417248E0,6.649895191E0
1.763468255E1,-2.493561029E0,6.429628849E0,6.630741596E0
1.764469737E1,-2.488772631E0,6.434417248E0,6.621164799E0
1.765479706E1,-2.493561029E0,6.458359241E0,6.664260387E0
1.766482120E1,-2.493561029E0,6.424840450E0,6.640318394E0
1.767488453E1,-2.498349428E0,6.429628849E0,6.645106792E0
1.768485095E1,-2.498349428E0,6.453570843E0,6.645106792E0
1.769488819E1,-2.522291422E0,6.443994045E0,6.630741596E0
1.770492459E1,-2.512714624E0,6.434417248E0,6.630741596E0
1.771500498E1,-2.488772631E0,6.434417248E0,6.640318394E0
1.772490809E1,-2.512714624E0,6.420052052E0,6.654683590E0
1.773499356E1,-2.493561029E0,6.443994045E0,6.621164799E0
1.774495497E1,-2.498349428E0,6.434417248E0,6.645106792E0
1.775498194E1,-2.498349428E0,6.434417248E0,6.635529995E0
1.776507269E1,-2.517503023E0,6.434417248E0,6.630741596E0
1.777504946E1,-2.493561029E0,6.420052052E0,6.616376400E0
1.778515577E1,-2.503137827E0,6.434417248E0,6.635529995E0
1.779518203E1,-2.507926226E0,6.415263653E0,6.630741596E0
1.780509596E1,-2.488772631E0,6.448782444E0,6.654683590E0
1.781520154E1,-2.503137827E0,6.434417248E0,6.621164799E0
1.782526076E1,-2.488772631E0,6.434417248E0,6.640318394E0
1.783517197E1,-2.498349428E0,6.434417248E0,6.635529995E0
1.784524820E1,-2.507926226E0,6.410475254E0,6.649895191E0
1.785535463E1,-2.507926226E0,6.439205647E0,6.640318394E0
1.786531480E1,-2.512714624E0,6.429628849E0,6.630741596E0
1.787537206E1,-2.512714624E0,6.420052052E0,6.630741596E0
1.788529559E1,-2.512714624E0,6.420052052E0,6.625953197E0
1.789544397E1,-2.517503023E0,6.439205647E0,6.640318394E0
1.790534590E1,-2.493561029E0,6.448782444E0,6.640318394E0
1.791536070E1,-2.507926226E0,6.429628849E0,6.616376400E0
1.792543527E1,-2.474407434E0,6.453570843E0,6.659471989E0
1.793549107E1,-2.498349428E0,6.434417248E0,6.664260387E0
1.794554949E1,-2.507926226E0,6.429628849E0,6.621164799E0
1.795551071E1,-2.493561029E0,6.453570843E0,6.649895191E0
1.796560978E1,-2.488772631E0,6.434417248E0,6.635529995E0
1.797557412E1,-2.531868219E0,6.453570843E0,6.654683590E0
1.798554590E1,-2.507926226E0,6.434417248E0,6.611588001E0
1.799563170E1,-2.536656618E0,6.443994045E0,6.664260387E0
1.800561631E1,-2.503137827E0,6.434417248E0,6.611588001E0
1.801563758E1,-2.517503023E0,6.420052052E0,6.635529995E0
1.802571255E1,-2.507926226E0,6.434417248E0,6.635529995E0
1.803574284E1,-2.517503023E0,6.443994045E0,6.621164799E0
1.804578518E1,-2.507926226E0,6.458359241E0,6.640318394E0
1.805582177E1,-2.498349428E0,6.429628849E0,6.640318394E0
1.806573920E1,-2.507926226E0,6.439205647E0,6.635529995E0
1.807575646E1,-2.503137827E0,6.439205647E0,6.630741596E0
1.808579714E1,-2.488772631E0,6.420052052E0,6.625953197E0
1.809589794E1,-2.493561029E0,6.448782444E0,6.669048786E0
1.810593379E1,-2.493561029E0,6.448782444E0,6.635529995E0
1.811591470E1,-2.483984232E0,6.429628849E0,6.635529995E0
1.812601490E1,-2.503137827E0,6.429628849E0,6.645106792E0
1.813593956E1,-2.503137827E0,6.448782444E0,6.621164799E0
1.814593108E1,-2.517503023E0,6.429628849E0,6.654683590E0
1.815595547E1,-2.503137827E0,6.448782444E0,6.659471989E0
1.816602213E1,-2.488772631E0,6.448782444E0,6.630741596E0
1.817602837E1,-2.507926226E0,6.439205647E0,6.640318394E0
1.818603332E1,-2.498349428E0,6.424840450E0,6.635529995E0
1.819605170E1,-2.469619036E0,6.453570843E0,6.635529995E0
1.820615340E1,-2.493561029E0,6.434417248E0,6.640318394E0
1.821613716E1,-2.507926226E0,6.453570843E0,6.616376400E0
1.822614455E1,-2.493561029E0,6.443994045E0,6.640318394E0
1.823616062E1,-2.512714624E0,6.429628849E0,6.669048786E0
1.824628546E1,-2.507926226E0,6.415263653E0,6.635529995E0
1.825624376E1,-2.503137827E0,6.439205647E0,6.630741596E0
1.826623483E1,-2.503137827E0,6.443994045E0,6.654683590E0
1.827625493E1,-2.483984232E0,6.410475254E0,6.645106792E0
1.828628669E1,-2.488772631E0,6.448782444E0,6.630741596E0
1.829633688E1,-2.488772631E0,6.424840450E0,6.645106792E0
1.830648606E1,-2.493561029E0,6.429628849E0,6.640318394E0
1.831643196E1,-2.493561029E0,6.400898457E0,6.630741596E0
1.832649794E1,-2.512714624E0,6.429628849E0,6.630741596E0
1.833653212E1,-2.493561029E0,6.443994045E0,6.654683590E0
1.834643983E1,-2.512714624E0,6.448782444E0,6.654683590E0
1.835646580E1,-2.498349428E0,6.439205647E0,6.621164799E0
1.836653972E1,-2.493561029E0,6.420052052E0,6.640318394E0
1.837652511E1,-2.488772631E0,6.448782444E0,6.649895191E0
1.838652489E1,-2.522291422E0,6.439205647E0,6.640318394E0
1.839668252E1,-2.503137827E0,6.429628849E0,6.625953197E0
1.840664252E1,-2.493561029E0,6.439205647E0,6.664260387E0
1.841662472E1,-2.498349428E0,6.443994045E0,6.640318394E0
1.842662807E1,-2.503137827E0,6.439205647E0,6.659471989E0
1.843671657E1,-2.522291422E0,6.410475254E0,6.635529995E0
1.844667714E1,-2.493561029E0,6.448782444E0,6.654683590E0
1.845675268E1,-2.522291422E0,6.429628849E0,6.659471989E0
1.846672903E1,-2.512714624E0,6.434417248E0,6.645106792E0
1.847678993E1,-2.512714624E0,6.434417248E0,6.645106792E0
1.848681185E1,-2.512714624E0,6.429628849E0,6.640318394E0
1.849692139E1,-2.498349428E0,6.410475254E0,6.635529995E0
1.850683086E1,-2.503137827E0,6.424840450E0,6.654683590E0
1.851684270E1,-2.488772631E0,6.429628849E0,6.640318394E0
1.852700965E1,-2.479195833E0,6.434417248E0,6.640318394E0
1.853690982E1,-2.493561029E0,6.434417248E0,6.635529995E0
1.854690399E1,-2.517503023E0,6.429628849E0,6.640318394E0
1.855695005E1,-2.498349428E0,6.434417248E0,6.625953197E0
1.856701483E1,-2.512714624E0,6.443994045E0,6.635529995E0
1.857704348E1,-2.498349428E0,6.443994045E0,6.635529995E0
1.858711800E1,-2.488772631E0,6.434417248E0,6.621164799E0
1.859704762E1,-2.507926226E0,6.448782444E0,6.640318394E0
1.860707280E1,-2.498349428E0,6.439205647E0,6.616376400E0
1.861727204E1,-2.507926226E0,6.443994045E0,6.654683590E0
1.862715992E1,-2.479195833E0,6.429628849E0,6.630741596E0
1.863733438E1,-2.517503023E0,6.434417248E0,6.654683590E0
1.864718964E1,-2.503137827E0,6.405686855E0,6.635529995E0
1.865720993E1,-2.498349428E0,6.453570843E0,6.640318394E0
1.866721849E1,-2.493561029E0,6.434417248E0,6.640318394E0
1.867727237E1,-2.483984232E0,6.429628849E0,6.645106792E0
1.868726100E1,-2.493561029E0,6.448782444E0,6.630741596E0
1.869741704E1,-2.512714624E0,6.439205647E0,6.649895191E0
1.870731924E1,-2.503137827E0,6.463147640E0,6.645106792E0
1.871733552E1,-2.498349428E0,6.443994045E0,6.659471989E0
1.872736450E1,-2.527079821E0,6.439205647E0,6.635529995E0
1.873748515E1,-2.503137827E0,6.410475254E0,6.654683590E0
1.874748396E1,-2.493561029E0,6.443994045E0,6.621164799E0
1.875756272E1,-2.512714624E0,6.434417248E0,6.645106792E0
1.876747174E1,-2.527079821E0,6.424840450E0,6.635529995E0
1.877751512E1,-2.498349428E0,6.420052052E0,6.654683590E0
1.878760993E1,-2.498349428E0,6.439205647E0,6.640318394E0
1.879755665E1,-2.483984232E0,6.434417248E0,6.621164799E0
1.880756879E1,-2.498349428E0,6.434417248E0,6.645106792E0
1.881761929E1,-2.503137827E0,6.453570843E0,6.649895191E0
1.882765577E1,-2.498349428E0,6.429628849E0,6.635529995E0
1.883765550E1,-2.503137827E0,6.434417248E0,6.630741596E0
1.884767896E1,-2.479195833E0,6.434417248E0,6.625953197E0
1.885772171E1,-2.503137827E0,6.443994045E0,6.640318394E0
1.886785808E1,-2.527079821E0,6.424840450E0,6.649895191E0
1.887776314E1,-2.503137827E0,6.434417248E0,6.635529995E0
1.888777512E1,-2.522291422E0,6.443994045E0,6.659471989E0
1.889789666E1,-2.512714624E0,6.453570843E0,6.621164799E0
1.890789573E1,-2.503137827E0,6.434417248E0,6.683413982E0
1.891785631E1,-2.493561029E0,6.424840450E0,6.649895191E0
1.892790775E1,-2.507926226E0,6.443994045E0,6.635529995E0
1.893789956E1,-2.474407434E0,6.429628849E0,6.611588001E0
1.894796747E1,-2.493561029E0,6.439205647E0,6.616376400E0
1.895802698E1,-2.503137827E0,6.448782444E0,6.635529995E0
1.896799733E1,-2.507926226E0,6.439205647E0,6.630741596E0
1.897799300E1,-2.493561029E0,6.415263653E0,6.640318394E0
1.898802634E1,-2.493561029E0,6.443994045E0,6.625953197E0
1.899805370E1,-2.522291422E0,6.434417248E0,6.645106792E0
1.900809903E1,-2.498349428E0,6.424840450E0,6.659471989E0
1.901808946E1,-2.503137827E0,6.458359241E0,6.625953197E0
1.902811236E1,-2.498349428E0,6.439205647E0,6.635529995E0
1.903820449E1,-2.503137827E0,6.420052052E0,6.664260387E0
1.904819417E1,-2.493561029E0,6.429628849E0,6.654683590E0
1.905818423E1,-2.498349428E0,6.434417248E0,6.635529995E0
1.906821191E1,-2.507926226E0,6.420052052E0,6.606799603E0
1.907828495E1,-2.503137827E0,6.434417248E0,6.635529995E0
1.908828882E1,-2.507926226E0,6.415263653E0,6.630741596E0
1.909829215E1,-2.488772631E0,6.429628849E0,6.645106792E0
1.910832022E1,-2.503137827E0,6.439205647E0,6.649895191E0
1.911834205E1,-2.493561029E0,6.448782444E0,6.635529995E0
1.912839512E1,-2.503137827E0,6.420052052E0,6.640318394E0
1.913840763E1,-2.503137827E0,6.424840450E0,6.630741596E0
1.914842656E1,-2.488772631E0,6.448782444E0,6.649895191E0
1.915843796E1,-2.493561029E0,6.448782444E0,6.630741596E0
1.916849509E1,-2.483984232E0,6.443994045E0,6.630741596E0
1.917849849E1,-2.488772631E0,6.439205647E0,6.630741596E0
1.918851504E1,-2.503137827E0,6.448782444E0,6.645106792E0
1.919854350E1,-2.507926226E0,6.424840450E0,6.640318394E0
1.920858382E1,-2.522291422E0,6.415263653E0,6.640318394E0
1.921861671E1,-2.522291422E0,6.448782444E0,6.635529995E0
1.922861105E1,-2.517503023E0,6.429628849E0,6.597222805E0
1.923877205E1,-2.507926226E0,6.448782444E0,6.630741596E0
1.924868963E1,-2.498349428E0,6.458359241E0,6.621164799E0
1.925870481E1,-2.493561029E0,6.443994045E0,6.640318394E0
1.926876875E1,-2.512714624E0,6.439205647E0,6.630741596E0
1.927884845E1,-2.512714624E0,6.434417248E0,6.645106792E0
1.928879087E1,-2.493561029E0,6.453570843E0,6.654683590E0
1.929882240E1,-2.479195833E0,6.439205647E0,6.630741596E0
1.930881084E1,-2.483984232E0,6.415263653E0,6.630741596E0
1.931883547E1,-2.503137827E0,6.434417248E0,6.587646008E0
1.932885832E1,-2.507926226E0,6.439205647E0,6.606799603E0
1.933892733E1,-2.512714624E0,6.443994045E0,6.630741596E0
1.934890859E1,-2.507926226E0,6.448782444E0,6.621164799E0
1.935904032E1,-2.498349428E0,6.443994045E0,6.625953197E0
1.936903920E1,-2.507926226E0,6.415263653E0,6.649895191E0
1.937898899E1,-2.512714624E0,6.424840450E0,6.640318394E0
1.938900357E1,-2.483984232E0,6.420052052E0,6.630741596E0
1.939902348E1,-2.483984232E0,6.415263653E0,6.635529995E0
1.940907480E1,-2.503137827E0,6.453570843E0,6.659471989E0
1.941908209E1,-2.498349428E0,6.448782444E0,6.630741596E0
1.942909733E1,-2.503137827E0,6.415263653E0,6.625953197E0
1.943914371E1,-2.512714624E0,6.434417248E0,6.625953197E0
1.944918681E1,-2.493561029E0,6.453570843E0,6.625953197E0
1.945926723E1,-2.483984232E0,6.420052052E0,6.630741596E0
1.946926193E1,-2.498349428E0,6.429628849E0,6.640318394E0
1.947930821E1,-2.483984232E0,6.434417248E0,6.659471989E0
1.948930152E1,-2.493561029E0,6.439205647E0,6.654683590E0
1.949927044E1,-2.507926226E0,6.434417248E0,6.611588001E0
1.950933786E1,-2.507926226E0,6.453570843E0,6.621164799E0
1.951930752E1,-2.498349428E0,6.429628849E0,6.621164799E0
1.952937650E1,-2.479195833E0,6.429628849E0,6.630741596E0
1.953936280E1,-2.512714624E0,6.424840450E0,6.621164799E0
1.954949369E1,-2.503137827E0,6.434417248E0,6.616376400E0
1.955946893E1,-2.517503023E0,6.463147640E0,6.649895191E0
1.956954443E1,-2.503137827E0,6.434417248E0,6.640318394E0
1.957958216E1,-2.479195833E0,6.434417248E0,6.630741596E0
1.958955598E1,-2.498349428E0,6.463147640E0,6.649895191E0
1.959959995E1,-2.527079821E0,6.434417248E0,6.649895191E0
1.960964212E1,-2.498349428E0,6.448782444E0,6.659471989E0
1.961958922E1,-2.503137827E0,6.429628849E0,6.625953197E0
1.962971580E1,-2.512714624E0,6.429628849E0,6.645106792E0
1.963974473E1,-2.483984232E0,6.448782444E0,6.659471989E0
1.964967434E1,-2.493561029E0,6.453570843E0,6.616376400E0
1.965967401E1,-2.488772631E0,6.434417248E0,6.640318394E0
1.966975319E1,-2.498349428E0,6.434417248E0,6.640318394E0
1.967978100E1,-2.507926226E0,6.443994045E0,6.592434406E0
1.968978261E1,-2.517503023E0,6.443994045E0,6.621164799E0
1.969978404E1,-2.503137827E0,6.448782444E0,6.645106792E0
1.970987142E1,-2.517503023E0,6.463147640E0,6.649895191E0
1.971982134E1,-2.507926226E0,6.443994045E0,6.640318394E0
1.972998646E1,-2.488772631E0,6.439205647E0,6.635529995E0
1.973994032E1,-2.498349428E0,6.439205647E0,6.654683590E0
1.974996139E1,-2.483984232E0,6.434417248E0,6.640318394E0
1.976002741E1,-2.512714624E0,6.448782444E0,6.635529995E0
1.977005810E1,-2.503137827E0,6.448782444E0,6.625953197E0
1.978003125E1,-2.507926226E0,6.439205647E0,6.649895191E0
1.979006116E1,-2.517503023E0,6.424840450E0,6.649895191E0
1.980008832E1,-2.507926226E0,6.424840450E0,6.654683590E0
1.981015691E1,-2.498349428E0,6.429628849E0,6.635529995E0
1.982013955E1,-2.503137827E0,6.429628849E0,6.625953197E0
1.983013037E1,-2.512714624E0,6.448782444E0,6.640318394E0
1.984019512E1,-2.503137827E0,6.439205647E0,6.630741596E0
1.985030040E1,-2.512714624E0,6.453570843E0,6.654683590E0
1.986024113E1,-2.507926226E0,6.443994045E0,6.649895191E0
1.987025842E1,-2.493561029E0,6.439205647E0,6.645106792E0
1.988033222E1,-2.493561029E0,6.429628849E0,6.621164799E0
1.989027305E1,-2.512714624E0,6.443994045E0,6.669048786E0
1.990031534E1,-2.522291422E0,6.458359241E0,6.621164799E0
1.991039570E1,-2.503137827E0,6.439205647E0,6.635529995E0
1.992042995E1,-2.493561029E0,6.448782444E0,6.645106792E0
1.993036728E1,-2.498349428E0,6.429628849E0,6.649895191E0
1.994037028E1,-2.512714624E0,6.439205647E0,6.630741596E0
1.995044629E1,-2.474407434E0,6.434417248E0,6.625953197E0
1.996042093E1,-2.503137827E0,6.439205647E0,6.664260387E0
1.997051020E1,-2.503137827E0,6.424840450E0,6.649895191E0
1.998052303E1,-2.527079821E0,6.434417248E0,6.649895191E0
1.999048476E1,-2.517503023E0,6.424840450E0,6.635529995E0
1.999048476E1,-2.531868219E0,6.396110058E0,6.649895191E0
2.000047091E1,-2.531868219E0,6.420052052E0,6.669048786E0
2.001041563E1,-2.527079821E0,6.420052052E0,6.688202381E0
2.002036967E1,-2.512714624E0,6.400898457E0,6.659471989E0
2.003037320E1,-2.522291422E0,6.405686855E0,6.664260387E0
2.004040743E1,-2.517503023E0,6.396110058E0,6.664260387E0
2.005049970E1,-2.512714624E0,6.415263653E0,6.654683590E0
2.006046858E1,-2.531868219E0,6.420052052E0,6.645106792E0
2.007048399E1,-2.522291422E0,6.405686855E0,6.645106792E0
2.008051397E1,-2.536656618E0,6.405686855E0,6.645106792E0
2.009053012E1,-2.522291422E0,6.405686855E0,6.664260387E0
2.010065121E1,-2.517503023E0,6.410475254E0,6.654683590E0
2.011062214E1,-2.517503023E0,6.405686855E0,6.659471989E0
2.012062829E1,-2.517503023E0,6.381744862E0,6.673837185E0
2.013065815E1,-2.541445017E0,6.405686855E0,6.645106792E0
2.014069822E1,-2.498349428E0,6.415263653E0,6.654683590E0
2.015068714E1,-2.507926226E0,6.405686855E0,6.669048786E0
2.016071852E1,-2.503137827E0,6.410475254E0,6.664260387E0
2.017075829E1,-2.517503023E0,6.405686855E0,6.673837185E0
2.018080768E1,-2.522291422E0,6.410475254E0,6.659471989E0
2.019082871E1,-2.527079821E0,6.420052052E0,6.669048786E0
2.020091022E1,-2.517503023E0,6.410475254E0,6.645106792E0
2.021091924E1,-2.522291422E0,6.415263653E0,6.673837185E0
2.022091517E1,-2.512714624E0,6.420052052E0,6.688202381E0
2.023092023E1,-2.498349428E0,6.405686855E0,6.659471989E0
2.024093853E1,-2.517503023E0,6.400898457E0,6.649895191E0
2.025105488E1,-2.531868219E0,6.415263653E0,6.654683590E0
2.026101636E1,-2.522291422E0,6.396110058E0,6.659471989E0
2.027107764E1,-2.531868219E0,6.410475254E0,6.664260387E0
2.028104602E1,-2.522291422E0,6.429628849E0,6.659471989E0
2.029106790E1,-2.517503023E0,6.396110058E0,6.659471989E0
2.030111418E1,-2.517503023E0,6.396110058E0,6.673837185E0
2.031116904E1,-2.522291422E0,6.405686855E0,6.654683590E0
2.032120320E1,-2.531868219E0,6.405686855E0,6.649895191E0
2.033118669E1,-2.531868219E0,6.415263653E0,6.664260387E0
2.034121106E1,-2.522291422E0,6.405686855E0,6.649895191E0
2.035121953E1,-2.517503023E0,6.396110058E0,6.659471989E0
2.036124366E1,-2.517503023E0,6.420052052E0,6.654683590E0
2.037130129E1,-2.507926226E0,6.420052052E0,6.645106792E0
2.038133668E1,-2.536656618E0,6.415263653E0,6.640318394E0
2.039133540E1,-2.522291422E0,6.405686855E0,6.654683590E0
2.040135885E1,-2.517503023E0,6.410475254E0,6.649895191E0
2.041139062E1,-2.503137827E0,6.400898457E0,6.669048786E0
2.042142379E1,-2.507926226E0,6.420052052E0,6.673837185E0
2.043147420E1,-2.522291422E0,6.415263653E0,6.659471989E0
2.044146182E1,-2.517503023E0,6.396110058E0,6.664260387E0
2.045151006E1,-2.531868219E0,6.396110058E0,6.669048786E0
2.046160498E1,-2.522291422E0,6.420052052E0,6.673837185E0
2.047163246E1,-2.517503023E0,6.376956463E0,6.688202381E0
2.048159135E1,-2.527079821E0,6.424840450E0,6.645106792E0
2.049160370E1,-2.531868219E0,6.439205647E0,6.659471989E0
2.050164577E1,-2.541445017E0,6.429628849E0,6.635529995E0
2.051164638E1,-2.536656618E0,6.396110058E0,6.654683590E0
2.052167261E1,-2.527079821E0,6.415263653E0,6.640318394E0
2.053169835E1,-2.527079821E0,6.429628849E0,6.673837185E0
2.054174880E1,-2.512714624E0,6.429628849E0,6.669048786E0
2.055176233E1,-2.531868219E0,6.396110058E0,6.678625584E0
2.056178413E1,-2.503137827E0,6.429628849E0,6.630741596E0
2.057182768E1,-2.512714624E0,6.420052052E0,6.649895191E0
2.058185405E1,-2.522291422E0,6.410475254E0,6.669048786E0
2.059197871E1,-2.527079821E0,6.424840450E0,6.683413982E0
2.060189709E1,-2.527079821E0,6.405686855E0,6.649895191E0
2.061191480E1,-2.512714624E0,6.400898457E0,6.688202381E0
2.062196572E1,-2.517503023E0,6.420052052E0,6.664260387E0
2.063202008E1,-2.527079821E0,6.405686855E0,6.664260387E0
2.064199823E1,-2.527079821E0,6.415263653E0,6.669048786E0
2.065203188E1,-2.517503023E0,6.405686855E0,6.654683590E0
2.066214358E1,-2.522291422E0,6.405686855E0,6.640318394E0
2.067210352E1,-2.517503023E0,6.424840450E0,6.625953197E0
2.068210320E1,-2.527079821E0,6.410475254E0,6.669048786E0
2.069214246E1,-2.507926226E0,6.415263653E0,6.645106792E0
2.070218072E1,-2.507926226E0,6.415263653E0,6.678625584E0
2.071230621E1,-2.551021814E0,6.400898457E0,6.678625584E0
2.072224335E1,-2.522291422E0,6.405686855E0,6.669048786E0
2.073225342E1,-2.512714624E0,6.415263653E0,6.635529995E0
2.074229950E1,-2.531868219E0,6.410475254E0,6.645106792E0
2.075230522E1,-2.527079821E0,6.396110058E0,6.664260387E0
2.076236056E1,-2.527079821E0,6.410475254E0,6.635529995E0
2.077237759E1,-2.503137827E0,6.415263653E0,6.654683590E0
2.078239702E1,-2.522291422E0,6.424840450E0,6.669048786E0
2.079241784E1,-2.527079821E0,6.410475254E0,6.688202381E0
2.080246142E1,-2.531868219E0,6.434417248E0,6.659471989E0
2.081246872E1,-2.493561029E0,6.396110058E0,6.654683590E0
2.082250233E1,-2.522291422E0,6.415263653E0,6.669048786E0
2.083253062E1,-2.527079821E0,6.400898457E0,6.645106792E0
2.084259448E1,-2.527079821E0,6.410475254E0,6.654683590E0
2.085258724E1,-2.507926226E0,6.424840450E0,6.630741596E0
2.086262180E1,-2.517503023E0,6.391321659E0,6.649895191E0
2.087265236E1,-2.522291422E0,6.415263653E0,6.654683590E0
2.088269186E1,-2.527079821E0,6.415263653E0,6.649895191E0
2.089270195E1,-2.531868219E0,6.420052052E0,6.659471989E0
2.090273195E1,-2.503137827E0,6.386533260E0,6.654683590E0
2.091275178E1,-2.522291422E0,6.405686855E0,6.649895191E0
2.092278417E1,-2.522291422E0,6.400898457E0,6.669048786E0
2.093280634E1,-2.522291422E0,6.420052052E0,6.635529995E0
2.094283894E1,-2.527079821E0,6.424840450E0,6.649895191E0
2.095286521E1,-2.517503023E0,6.424840450E0,6.649895191E0
2.096289355E1,-2.517503023E0,6.410475254E0,6.625953197E0
2.097291795E1,-2.522291422E0,6.415263653E0,6.635529995E0
2.098302882E1,-2.503137827E0,6.410475254E0,6.635529995E0
2.099298716E1,-2.498349428E0,6.415263653E0,6.678625584E0
2.100311772E1,-2.517503023E0,6.415263653E0,6.630741596E0
2.101304951E1,-2.527079821E0,6.420052052E0,6.645106792E0
