"Time (s)","Acceleration x (m/s^2)","Acceleration y (m/s^2)","Acceleration z (m/s^2)","Absolute acceleration (m/s^2)"
3.181068200E-2,1.740778536E-1,-1.411765367E-1,9.893723488E0,9.896261838E0
3.431083800E-2,2.027917206E-1,-1.124626622E-1,9.893723488E0,9.896440612E0
3.681104600E-2,1.740778536E-1,-1.124626622E-1,9.917651176E0,9.919816319E0
3.931120300E-2,1.980060786E-1,-1.842473447E-1,9.874580383E0,9.878283820E0
4.181135900E-2,1.932204217E-1,-1.220339537E-1,9.864411354E0,9.867058213E0
4.426135900E-2,1.740778536E-1,-1.411765367E-1,9.874580383E0,9.877123653E0
4.671135900E-2,1.692921966E-1,-1.220339537E-1,9.884152412E0,9.886355296E0
4.918599400E-2,2.027917206E-1,-1.220339537E-1,9.922437668E0,9.925259999E0
5.166063000E-2,1.836491376E-1,-1.507478207E-1,9.864411354E0,9.867272332E0
5.413521300E-2,1.836491376E-1,-1.507478207E-1,9.854840279E0,9.857704034E0
5.663182800E-2,1.884347796E-1,-1.076770201E-1,9.888937950E0,9.891319214E0
5.912839000E-2,2.027917206E-1,-1.459621787E-1,9.908080101E0,9.911230031E0
6.162495300E-2,1.884347796E-1,-1.220339537E-1,9.965508461E0,9.968036860E0
6.412198400E-2,1.884347796E-1,-9.810572863E-2,9.941579819E0,9.943849440E0
6.663391100E-2,1.692921966E-1,-1.316052526E-1,9.932008743E0,9.934323201E0
6.913094200E-2,1.980060786E-1,-8.853443712E-2,9.932008743E0,9.934376801E0
7.162792100E-2,1.884347796E-1,-1.316052526E-1,9.893723488E0,9.896392881E0
7.412490000E-2,2.171486616E-1,-9.810572863E-2,9.903294563E0,9.906160784E0
7.662193200E-2,2.075773627E-1,-1.316052526E-1,9.946365356E0,9.949401595E0
7.911891100E-2,2.123630047E-1,-1.124626622E-1,9.932008743E0,9.934915378E0
8.161589000E-2,1.836491376E-1,-1.316052526E-1,9.864411354E0,9.866998445E0
8.411328600E-2,2.027917206E-1,-1.363908947E-1,9.874580383E0,9.877604199E0
8.662401500E-2,1.932204217E-1,-1.698904037E-1,9.927223206E0,9.930556754E0
8.912141100E-2,1.932204217E-1,-1.363908947E-1,9.927223206E0,9.930040140E0
9.161880700E-2,1.788634956E-1,-1.316052526E-1,9.912865639E0,9.915352604E0
9.411615000E-2,2.027917206E-1,-1.220339537E-1,9.908080101E0,9.910906520E0
9.661354600E-2,2.171486616E-1,-1.268195957E-1,9.941579819E0,9.944759728E0
9.911094200E-2,1.788634956E-1,-1.220339537E-1,9.898509026E0,9.900877000E0
1.016082860E-1,1.788634956E-1,-1.220339537E-1,9.941579819E0,9.943937536E0
1.041065150E-1,1.788634956E-1,-1.603191197E-1,9.927223206E0,9.930128647E0
1.066216710E-1,1.980060786E-1,-1.459621787E-1,9.898509026E0,9.901565144E0
1.091367750E-1,2.171486616E-1,-1.363908947E-1,9.932008743E0,9.935318500E0
1.116350050E-1,1.740778536E-1,-1.363908947E-1,9.946365356E0,9.948823517E0
1.141332340E-1,1.980060786E-1,-1.555334777E-1,9.936794281E0,9.939983785E0
1.166314630E-1,2.315055877E-1,-1.459621787E-1,9.932008743E0,9.935778655E0
1.191296920E-1,2.123630047E-1,-1.459621787E-1,9.912865639E0,9.916214407E0
1.216279730E-1,2.171486616E-1,-1.938186288E-1,9.903294563E0,9.907570964E0
1.241262030E-1,1.932204217E-1,-1.316052526E-1,9.888937950E0,9.891700959E0
1.266244840E-1,1.740778536E-1,-1.698904037E-1,9.879366875E0,9.882360836E0
1.291233380E-1,1.980060786E-1,-1.651047617E-1,9.922437668E0,9.925786380E0
1.316221400E-1,2.123630047E-1,-1.268195957E-1,9.874580383E0,9.877677814E0
1.341204210E-1,1.645065546E-1,-1.316052526E-1,9.893723488E0,9.895966188E0
1.366185980E-1,2.123630047E-1,-1.028913707E-1,9.893723488E0,9.896537229E0
1.391168800E-1,1.597209126E-1,-1.028913707E-1,9.898509026E0,9.900332233E0
1.416151610E-1,1.740778536E-1,-1.268195957E-1,9.936794281E0,9.939128075E0
1.441134420E-1,1.597209126E-1,-1.268195957E-1,9.922437668E0,9.924533402E0
1.466117230E-1,2.171486616E-1,-1.459621787E-1,9.917651176E0,9.921101923E0
1.491102130E-1,2.075773627E-1,-1.363908947E-1,9.932008743E0,9.935113916E0
1.516086500E-1,1.645065546E-1,-1.555334777E-1,9.917651176E0,9.920234772E0
1.541069320E-1,1.788634956E-1,-1.651047617E-1,9.912865639E0,9.915853816E0
1.566051610E-1,1.549352705E-1,-1.459621787E-1,9.917651176E0,9.919935219E0
1.591034420E-1,1.740778536E-1,-1.459621787E-1,9.879366875E0,9.881978441E0
1.616017230E-1,1.836491376E-1,-1.124626622E-1,9.917651176E0,9.919988897E0
1.641000050E-1,1.549352705E-1,-1.268195957E-1,9.932008743E0,9.934026667E0
1.665988590E-1,2.027917206E-1,-1.076770201E-1,9.936794281E0,9.939446635E0
1.691078170E-1,1.645065546E-1,-1.842473447E-1,9.912865639E0,9.915942450E0
1.716167750E-1,1.692921966E-1,-1.459621787E-1,9.893723488E0,9.896248242E0
1.741156300E-1,1.740778536E-1,-1.363908947E-1,9.908080101E0,9.910547758E0
1.766144320E-1,1.740778536E-1,-1.507478207E-1,9.917651176E0,9.920324232E0
1.791132860E-1,1.884347796E-1,-1.220339537E-1,9.912865639E0,9.915407461E0
1.816121400E-1,2.075773627E-1,-1.220339537E-1,9.912865639E0,9.915789722E0
1.841109940E-1,2.267199457E-1,-1.507478207E-1,9.932008743E0,9.935739757E0
1.866100050E-1,2.027917206E-1,-1.363908947E-1,9.917651176E0,9.920661864E0
1.891115150E-1,1.932204217E-1,-1.411765367E-1,9.922437668E0,9.925322877E0
1.916129730E-1,1.740778536E-1,-1.411765367E-1,9.912865639E0,9.915399089E0
1.941119840E-1,2.315055877E-1,-1.220339537E-1,9.941579819E0,9.945023701E0
1.966109420E-1,2.027917206E-1,-1.363908947E-1,9.884152412E0,9.887173300E0
1.991099530E-1,2.171486616E-1,-1.076770201E-1,9.884152412E0,9.887123788E0
2.016089630E-1,2.171486616E-1,-1.172483116E-1,9.884152412E0,9.887232657E0
2.041079210E-1,1.932204217E-1,-9.810572863E-2,9.893723488E0,9.896096368E0
2.066064630E-1,1.884347796E-1,-1.411765367E-1,9.898509026E0,9.901308975E0
2.090969320E-1,1.884347796E-1,-1.268195957E-1,9.893723488E0,9.896330397E0
2.115874000E-1,2.171486616E-1,-1.603191197E-1,9.912865639E0,9.916539766E0
2.140859420E-1,2.123630047E-1,-1.603191197E-1,9.946365356E0,9.949923822E0
2.165844320E-1,1.788634956E-1,-1.651047617E-1,9.946365356E0,9.949343473E0
2.190829730E-1,1.980060786E-1,-9.810572863E-2,9.917651176E0,9.920112701E0
2.215815150E-1,2.027917206E-1,-1.507478207E-1,9.884152412E0,9.887381772E0
2.240800570E-1,1.788634956E-1,-1.268195957E-1,9.884152412E0,9.886584055E0
2.265794320E-1,2.123630047E-1,-1.124626622E-1,9.946365356E0,9.949267797E0
2.290937030E-1,1.932204217E-1,-1.698904037E-1,9.917651176E0,9.920987942E0
2.316079730E-1,2.315055877E-1,-1.172483116E-1,9.840482712E0,9.843903799E0
2.341073480E-1,2.075773627E-1,-1.555334777E-1,9.893723488E0,9.897122990E0
2.366066710E-1,1.932204217E-1,-1.411765367E-1,9.970293999E0,9.973165363E0
2.391060460E-1,1.884347796E-1,-1.459621787E-1,9.927223206E0,9.930084249E0
2.416054210E-1,1.692921966E-1,-1.028913707E-1,9.888937950E0,9.890922114E0
2.441047960E-1,1.980060786E-1,-1.363908947E-1,9.884152412E0,9.887076302E0
2.466038590E-1,2.075773627E-1,-1.363908947E-1,9.936794281E0,9.939897958E0
2.490974000E-1,1.692921966E-1,-1.268195957E-1,9.912865639E0,9.915122199E0
2.515908900E-1,2.410768867E-1,-1.363908947E-1,9.879366875E0,9.883248979E0
2.540899530E-1,1.692921966E-1,-1.555334777E-1,9.893723488E0,9.896394038E0
2.565889630E-1,2.075773627E-1,-1.507478207E-1,9.912865639E0,9.916184671E0
2.590880250E-1,1.836491376E-1,-1.507478207E-1,9.908080101E0,9.910928473E0
2.615870880E-1,1.788634956E-1,-1.459621787E-1,9.936794281E0,9.939475725E0
2.640861500E-1,1.788634956E-1,-1.363908947E-1,9.903294563E0,9.905848668E0
2.665854730E-1,1.740778536E-1,-1.555334777E-1,9.888937950E0,9.891692855E0
2.690894320E-1,1.788634956E-1,-1.124626622E-1,9.917651176E0,9.919901454E0
2.715933900E-1,1.836491376E-1,-1.507478207E-1,9.946365356E0,9.949202768E0
2.740927130E-1,1.214357466E-1,-1.459621787E-1,9.893723488E0,9.895545263E0
2.765919840E-1,1.932204217E-1,-1.172483116E-1,9.912865639E0,9.915441819E0
2.790913070E-1,1.645065546E-1,-1.555334777E-1,9.912865639E0,9.915450481E0
2.815906300E-1,1.405783296E-1,-1.028913707E-1,9.936794281E0,9.938321261E0
2.840899530E-1,1.788634956E-1,-1.124626622E-1,9.922437668E0,9.924686860E0
2.865887030E-1,1.645065546E-1,-1.411765367E-1,9.941579819E0,9.943943006E0
2.890778170E-1,1.645065546E-1,-1.507478207E-1,9.922437668E0,9.924946175E0
2.915669320E-1,1.501496136E-1,-1.268195957E-1,9.908080101E0,9.910029233E0
2.940656820E-1,1.453639716E-1,-1.507478207E-1,9.941579819E0,9.943785239E0
2.965644320E-1,1.597209126E-1,-1.172483116E-1,9.898509026E0,9.900491850E0
2.990631820E-1,1.501496136E-1,-1.220339537E-1,9.936794281E0,9.938677869E0
3.015619840E-1,1.740778536E-1,-8.374879509E-2,9.908080101E0,9.909963080E0
3.040607340E-1,1.405783296E-1,-1.459621787E-1,9.908080101E0,9.910152295E0
3.065601090E-1,1.597209126E-1,-1.603191197E-1,9.884152412E0,9.886742735E0
3.090809420E-1,2.123630047E-1,-1.555334777E-1,9.893723488E0,9.897224518E0
3.115803170E-1,1.740778536E-1,-1.459621787E-1,9.917651176E0,9.920252664E0
3.140797440E-1,1.932204217E-1,-1.794617027E-1,9.898509026E0,9.902021085E0
3.165791190E-1,1.692921966E-1,-1.363908947E-1,9.936794281E0,9.939172144E0
3.190784940E-1,1.357926875E-1,-1.603191197E-1,9.922437668E0,9.924661765E0
3.215779210E-1,2.027917206E-1,-1.220339537E-1,9.922437668E0,9.925259999E0
3.240772960E-1,1.980060786E-1,-1.268195957E-1,9.893723488E0,9.896517270E0
3.265768800E-1,1.980060786E-1,-1.555334777E-1,9.888937950E0,9.892142885E0
3.290827650E-1,1.980060786E-1,-1.459621787E-1,9.903294563E0,9.906349205E0
3.315823480E-1,2.219343036E-1,-1.268195957E-1,9.932008743E0,9.935297465E0
3.340819320E-1,2.171486616E-1,-1.603191197E-1,9.946365356E0,9.950027114E0
3.365814630E-1,2.123630047E-1,-1.316052526E-1,9.903294563E0,9.906445437E0
3.390810460E-1,2.267199457E-1,-1.555334777E-1,9.879366875E0,9.883191916E0
3.415806300E-1,1.645065546E-1,-1.268195957E-1,9.946365356E0,9.948534034E0
3.440801610E-1,1.740778536E-1,-1.124626622E-1,9.922437668E0,9.924601766E0
3.465795360E-1,1.788634956E-1,-1.411765367E-1,9.874580383E0,9.877209156E0
3.490756300E-1,2.027917206E-1,-1.076770201E-1,9.898509026E0,9.901171635E0
3.515717230E-1,2.075773627E-1,-1.459621787E-1,9.927223206E0,9.930465945E0
3.540710980E-1,1.932204217E-1,-1.411765367E-1,9.960722923E0,9.963597046E0
3.565704210E-1,2.075773627E-1,-1.220339537E-1,9.946365356E0,9.949279595E0
3.590697960E-1,1.549352705E-1,-1.459621787E-1,9.946365356E0,9.948642807E0
3.615692230E-1,1.884347796E-1,-1.316052526E-1,9.903294563E0,9.905961378E0
3.640685980E-1,1.692921966E-1,-1.028913707E-1,9.903294563E0,9.905275851E0
3.665677130E-1,1.884347796E-1,-1.316052526E-1,9.903294563E0,9.905961378E0
3.690617750E-1,1.932204217E-1,-1.028913707E-1,9.936794281E0,9.939205267E0
3.715558380E-1,1.836491376E-1,-1.411765367E-1,9.927223206E0,9.929925397E0
3.740549530E-1,1.932204217E-1,-1.363908947E-1,9.927223206E0,9.930040140E0
3.765540150E-1,1.932204217E-1,-1.220339537E-1,9.912865639E0,9.915499563E0
3.790531300E-1,1.740778536E-1,-1.172483116E-1,9.932008743E0,9.934226087E0
3.815522440E-1,1.453639716E-1,-7.896314561E-2,9.908080101E0,9.909460992E0
3.840513070E-1,2.075773627E-1,-1.172483116E-1,9.932008743E0,9.934869562E0
3.865501090E-1,1.692921966E-1,-1.459621787E-1,9.965508461E0,9.968015033E0
3.890438070E-1,1.836491376E-1,-1.459621787E-1,9.922437668E0,9.925210387E0
3.915374530E-1,1.405783296E-1,-1.363908947E-1,9.912865639E0,9.914800548E0
3.940362550E-1,1.645065546E-1,-1.411765367E-1,9.941579819E0,9.943943006E0
3.965350050E-1,2.027917206E-1,-1.172483116E-1,9.859625816E0,9.862408067E0
3.990338070E-1,1.836491376E-1,-1.555334777E-1,9.888937950E0,9.891865924E0
4.015326090E-1,2.123630047E-1,-1.507478207E-1,9.917651176E0,9.921069892E0
4.040314110E-1,1.405783296E-1,-9.332008660E-2,9.879366875E0,9.880807697E0
4.065308900E-1,1.788634956E-1,-1.363908947E-1,9.903294563E0,9.905848668E0
4.090422960E-1,1.788634956E-1,-1.124626622E-1,9.932008743E0,9.934255769E0
4.115537030E-1,1.836491376E-1,-1.555334777E-1,9.903294563E0,9.906218293E0
4.140531820E-1,1.932204217E-1,-1.363908947E-1,9.917651176E0,9.920470829E0
4.165526090E-1,1.884347796E-1,-1.172483116E-1,9.912865639E0,9.915349717E0
4.190520880E-1,1.549352705E-1,-1.316052526E-1,9.908080101E0,9.910165295E0
4.215515670E-1,1.884347796E-1,-1.316052526E-1,9.903294563E0,9.905961378E0
4.240510460E-1,2.123630047E-1,-1.555334777E-1,9.884152412E0,9.887656832E0
4.265502130E-1,1.788634956E-1,-1.363908947E-1,9.888937950E0,9.891495762E0
4.290440670E-1,2.410768867E-1,-1.794617027E-1,9.912865639E0,9.917420518E0
4.315378690E-1,1.788634956E-1,-1.411765367E-1,9.888937950E0,9.891562907E0
4.340370360E-1,2.267199457E-1,-1.363908947E-1,9.898509026E0,9.902044503E0
4.365361500E-1,1.884347796E-1,-1.363908947E-1,9.898509026E0,9.901241895E0
4.390353170E-1,1.597209126E-1,-1.459621787E-1,9.946365356E0,9.948718487E0
4.415344840E-1,2.506481707E-1,-1.459621787E-1,9.908080101E0,9.912324690E0
4.440336500E-1,1.788634956E-1,-1.316052526E-1,9.898509026E0,9.900999597E0
4.465332340E-1,1.645065546E-1,-9.332008660E-2,9.912865639E0,9.914669748E0
4.490401610E-1,1.788634956E-1,-1.363908947E-1,9.903294563E0,9.905848668E0
4.515470360E-1,2.171486616E-1,-1.411765367E-1,9.908080101E0,9.911464859E0
4.540466190E-1,1.692921966E-1,-1.268195957E-1,9.908080101E0,9.910337751E0
4.565461500E-1,2.219343036E-1,-1.172483116E-1,9.941579819E0,9.944747925E0
4.590457340E-1,1.788634956E-1,-1.076770201E-1,9.922437668E0,9.924633785E0
4.615453170E-1,1.836491376E-1,-1.363908947E-1,9.917651176E0,9.920289025E0
4.640449000E-1,2.123630047E-1,-1.316052526E-1,9.903294563E0,9.906445437E0
4.665444840E-1,2.171486616E-1,-9.332008660E-2,9.917651176E0,9.920467078E0
4.690441190E-1,1.740778536E-1,-1.555334777E-1,9.951150894E0,9.953888581E0
4.715437030E-1,2.075773627E-1,-1.268195957E-1,9.912865639E0,9.915849774E0
4.740431820E-1,1.836491376E-1,-1.316052526E-1,9.898509026E0,9.901087207E0
4.765389630E-1,1.645065546E-1,-1.459621787E-1,9.927223206E0,9.929659004E0
4.790384420E-1,2.985046208E-1,-1.698904037E-1,9.663414001E0,9.669515909E0
4.815379210E-1,2.267199457E-1,-8.853443712E-2,9.835697174E0,9.838708207E0
4.840374000E-1,2.410768867E-1,-1.651047617E-1,1.019043350E1,1.019462175E1
4.865368800E-1,1.740778536E-1,-1.698904037E-1,1.016650486E1,1.016941429E1
4.890364110E-1,9.272187948E-2,-1.411765367E-1,9.994221687E0,9.995648818E0
4.915358900E-1,8.793623000E-2,-1.459621787E-1,9.773484230E0,9.774969654E0
4.940858900E-1,9.272187948E-2,-1.316052526E-1,9.744770050E0,9.746099764E0
4.966358900E-1,1.549352705E-1,-1.555334777E-1,9.835697174E0,9.838146904E0
4.991382860E-1,2.171486616E-1,-1.268195957E-1,9.874580383E0,9.877781861E0
5.016600050E-1,1.788634956E-1,-1.555334777E-1,9.984650612E0,9.987463675E0
5.041816710E-1,1.884347796E-1,-1.507478207E-1,1.001336479E1,1.001627211E1
5.066840670E-1,2.171486616E-1,-1.316052526E-1,9.941579819E0,9.944821908E0
5.091864630E-1,1.692921966E-1,-1.603191197E-1,9.874580383E0,9.877332626E0
5.116888070E-1,1.788634956E-1,-1.363908947E-1,9.884152412E0,9.886711462E0
5.141912030E-1,1.597209126E-1,-1.746760458E-1,9.903294563E0,9.906122637E0
5.166935980E-1,1.932204217E-1,-1.555334777E-1,9.979865074E0,9.982947044E0
5.191959420E-1,1.549352705E-1,-1.363908947E-1,9.912865639E0,9.915014503E0
5.216459420E-1,1.262213886E-1,-1.363908947E-1,9.932008743E0,9.933747127E0
5.240959420E-1,1.357926875E-1,-1.890329868E-1,9.884152412E0,9.886892436E0
5.265596400E-1,1.692921966E-1,-1.220339537E-1,9.874580383E0,9.876785402E0
5.290233900E-1,1.549352705E-1,-1.316052526E-1,9.936794281E0,9.938873450E0
5.314870880E-1,1.884347796E-1,-1.411765367E-1,9.932008743E0,9.934799251E0
5.339854730E-1,1.740778536E-1,-1.076770201E-1,9.932008743E0,9.934117732E0
5.364838070E-1,1.884347796E-1,-1.363908947E-1,9.951150894E0,9.953869311E0
5.389824530E-1,1.453639716E-1,-1.507478207E-1,9.951150894E0,9.953354194E0
5.414854730E-1,1.932204217E-1,-1.698904037E-1,9.936794281E0,9.940124620E0
5.439884940E-1,2.123630047E-1,-1.411765367E-1,9.941579819E0,9.944849831E0
5.464871400E-1,1.357926875E-1,-1.268195957E-1,9.908080101E0,9.909822105E0
5.489857340E-1,1.788634956E-1,-1.411765367E-1,9.893723488E0,9.896347176E0
5.514842750E-1,1.357926875E-1,-1.172483116E-1,9.898509026E0,9.900134734E0
5.539829210E-1,1.501496136E-1,-1.363908947E-1,9.869794846E0,9.871879136E0
5.564815150E-1,1.214357466E-1,-1.555334777E-1,9.917651176E0,9.919614013E0
5.589804730E-1,1.740778536E-1,-1.555334777E-1,9.893723488E0,9.896477061E0
5.614852650E-1,1.357926875E-1,-1.507478207E-1,9.884152412E0,9.886234545E0
5.639900050E-1,1.740778536E-1,-1.794617027E-1,9.932008743E0,9.935155121E0
5.664889630E-1,1.980060786E-1,-1.459621787E-1,9.869794846E0,9.872859852E0
5.689879210E-1,1.549352705E-1,-1.603191197E-1,9.859625816E0,9.862146237E0
5.714868280E-1,1.597209126E-1,-1.842473447E-1,9.912865639E0,9.915864210E0
5.739857860E-1,1.501496136E-1,-1.363908947E-1,9.859625816E0,9.861712256E0
5.764847440E-1,1.214357466E-1,-1.555334777E-1,9.898509026E0,9.900475657E0
5.789842750E-1,1.645065546E-1,-1.555334777E-1,9.898509026E0,9.901097616E0
5.814937030E-1,1.836491376E-1,-1.555334777E-1,9.864411354E0,9.867346605E0
5.840031300E-1,1.549352705E-1,-1.028913707E-1,9.840482712E0,9.842240170E0
5.865026610E-1,1.453639716E-1,-1.124626622E-1,9.869794846E0,9.871505905E0
5.890021920E-1,1.884347796E-1,-1.028913707E-1,9.908080101E0,9.910405925E0
5.915016710E-1,1.501496136E-1,-1.459621787E-1,9.884152412E0,9.886370354E0
5.940012030E-1,1.549352705E-1,-1.555334777E-1,9.912865639E0,9.915296303E0
5.965007340E-1,1.932204217E-1,-1.507478207E-1,9.874580383E0,9.877621008E0
5.989997960E-1,1.980060786E-1,-1.316052526E-1,9.941579819E0,9.944422338E0
6.014907860E-1,1.262213886E-1,-1.363908947E-1,9.965508461E0,9.967241002E0
6.039817230E-1,1.645065546E-1,-1.746760458E-1,9.912865639E0,9.915769224E0
6.064807860E-1,1.645065546E-1,-1.220339537E-1,9.922437668E0,9.924551575E0
6.089798480E-1,1.501496136E-1,-1.603191197E-1,9.908080101E0,9.910514538E0
6.114788590E-1,1.501496136E-1,-1.603191197E-1,9.951150894E0,9.953574797E0
6.139779210E-1,1.645065546E-1,-1.316052526E-1,9.955936432E0,9.958165121E0
6.164769840E-1,1.740778536E-1,-1.603191197E-1,9.922437668E0,9.925259422E0
6.189765150E-1,1.788634956E-1,-1.411765367E-1,9.946365356E0,9.948975162E0
6.214842230E-1,1.884347796E-1,-1.411765367E-1,9.917651176E0,9.920445723E0
6.239919320E-1,1.405783296E-1,-1.411765367E-1,9.888937950E0,9.890944690E0
6.264914630E-1,1.740778536E-1,-1.507478207E-1,9.864411354E0,9.867098832E0
6.289909420E-1,1.788634956E-1,-1.555334777E-1,9.917651176E0,9.920483238E0
6.314904210E-1,1.740778536E-1,-1.363908947E-1,9.922437668E0,9.924901755E0
6.339899530E-1,2.075773627E-1,-1.507478207E-1,9.922437668E0,9.925753500E0
6.364894840E-1,1.836491376E-1,-1.363908947E-1,9.912865639E0,9.915504760E0
6.389881300E-1,1.310070455E-1,-1.076770201E-1,9.884152412E0,9.885607017E0
6.414711500E-1,1.022931710E-1,-1.555334777E-1,9.903294563E0,9.905044057E0
6.439541710E-1,1.692921966E-1,-1.459621787E-1,9.893723488E0,9.896248242E0
6.464528170E-1,9.750752151E-2,-1.316052526E-1,9.932008743E0,9.933359217E0
6.489514110E-1,1.740778536E-1,-1.316052526E-1,9.864411354E0,9.866824940E0
6.514500050E-1,1.932204217E-1,-1.220339537E-1,9.888937950E0,9.891578246E0
6.539486500E-1,1.645065546E-1,-1.316052526E-1,9.936794281E0,9.939027263E0
6.564472440E-1,2.362912297E-1,-1.698904037E-1,9.898509026E0,9.902786336E0
6.589467750E-1,2.267199457E-1,-1.268195957E-1,9.960722923E0,9.964109910E0
6.614619320E-1,2.123630047E-1,-1.363908947E-1,9.946365356E0,9.949567042E0
6.639770360E-1,2.219343036E-1,-1.603191197E-1,9.989436150E0,9.993187261E0
6.664765670E-1,2.027917206E-1,-1.459621787E-1,9.946365356E0,9.949503166E0
6.689760980E-1,1.788634956E-1,-1.603191197E-1,9.903294563E0,9.906207023E0
6.714755780E-1,1.788634956E-1,-1.411765367E-1,9.888937950E0,9.891562907E0
6.739751090E-1,1.549352705E-1,-1.507478207E-1,9.932008743E0,9.934360952E0
6.764746400E-1,1.932204217E-1,-1.411765367E-1,9.898509026E0,9.901401208E0
6.789740670E-1,1.453639716E-1,-1.555334777E-1,9.874580383E0,9.876874966E0
6.814713590E-1,1.932204217E-1,-1.411765367E-1,9.888937950E0,9.891832931E0
6.839686500E-1,2.027917206E-1,-1.555334777E-1,9.917651176E0,9.920943504E0
6.864680780E-1,1.740778536E-1,-1.268195957E-1,9.908080101E0,9.910420657E0
6.889674530E-1,1.980060786E-1,-1.316052526E-1,9.903294563E0,9.906148069E0
6.914668280E-1,2.027917206E-1,-1.555334777E-1,9.893723488E0,9.897023775E0
6.939662550E-1,1.788634956E-1,-1.603191197E-1,9.927223206E0,9.930128647E0
6.964656300E-1,1.836491376E-1,-8.374879509E-2,9.941579819E0,9.943628621E0
6.989650570E-1,1.501496136E-1,-1.459621787E-1,9.936794281E0,9.939000475E0
7.014644840E-1,1.836491376E-1,-1.172483116E-1,9.917651176E0,9.920044306E0
7.039638590E-1,2.027917206E-1,-1.172483116E-1,9.908080101E0,9.910848750E0
7.064635460E-1,1.597209126E-1,-1.555334777E-1,9.917651176E0,9.920156566E0
7.089756820E-1,2.027917206E-1,-1.651047617E-1,9.903294563E0,9.906746553E0
7.114753690E-1,1.884347796E-1,-1.172483116E-1,9.941579819E0,9.944056724E0
7.139750050E-1,1.453639716E-1,-1.507478207E-1,9.927223206E0,9.929431815E0
7.164745880E-1,2.027917206E-1,-1.507478207E-1,9.932008743E0,9.935222547E0
7.189742750E-1,2.075773627E-1,-1.555334777E-1,9.975079536E0,9.978451322E0
7.214739630E-1,1.788634956E-1,-1.316052526E-1,9.936794281E0,9.939275259E0
7.239735980E-1,1.405783296E-1,-1.363908947E-1,9.893723488E0,9.895662140E0
7.264725570E-1,1.645065546E-1,-1.507478207E-1,9.951150894E0,9.953652165E0
7.289471400E-1,1.405783296E-1,-1.651047617E-1,9.955936432E0,9.958297650E0
7.314460980E-1,1.645065546E-1,-1.172483116E-1,9.941579819E0,9.943632076E0
7.339450570E-1,1.980060786E-1,-1.268195957E-1,9.917651176E0,9.920438220E0
7.364440150E-1,1.597209126E-1,-1.459621787E-1,9.932008743E0,9.934365274E0
7.389429730E-1,1.597209126E-1,-1.890329868E-1,9.932008743E0,9.935091440E0
7.414419840E-1,1.453639716E-1,-9.810572863E-2,9.955936432E0,9.957480889E0
7.439409420E-1,1.645065546E-1,-1.890329868E-1,9.912865639E0,9.916032526E0
7.464403170E-1,1.549352705E-1,-1.411765367E-1,9.941579819E0,9.943789270E0
7.489542230E-1,1.884347796E-1,-1.220339537E-1,9.936794281E0,9.939329984E0
7.514535980E-1,1.645065546E-1,-1.172483116E-1,9.908080101E0,9.910139296E0
7.539529730E-1,1.932204217E-1,-1.411765367E-1,9.884152412E0,9.887048794E0
7.564523480E-1,1.884347796E-1,-1.411765367E-1,9.912865639E0,9.915661534E0
7.589517230E-1,1.405783296E-1,-1.124626622E-1,9.912865639E0,9.914500254E0
7.614510980E-1,1.453639716E-1,-1.651047617E-1,9.908080101E0,9.910521760E0
7.639504730E-1,1.884347796E-1,-1.028913707E-1,9.927223206E0,9.929544545E0
7.664496920E-1,1.597209126E-1,-1.507478207E-1,9.932008743E0,9.934436741E0
7.689462030E-1,1.740778536E-1,-1.459621787E-1,9.941579819E0,9.944175046E0
7.714427130E-1,1.980060786E-1,-1.459621787E-1,9.898509026E0,9.901565144E0
7.739419320E-1,1.453639716E-1,-1.363908947E-1,9.917651176E0,9.919654128E0
7.764410980E-1,2.027917206E-1,-1.363908947E-1,9.927223206E0,9.930230991E0
7.789403170E-1,1.932204217E-1,-1.651047617E-1,9.927223206E0,9.930476035E0
7.814395880E-1,1.836491376E-1,-1.124626622E-1,9.951150894E0,9.953480747E0
7.839388070E-1,1.788634956E-1,-1.316052526E-1,9.908080101E0,9.910568267E0
7.864378690E-1,1.836491376E-1,-1.076770201E-1,9.927223206E0,9.929505623E0
7.889344320E-1,2.219343036E-1,-1.363908947E-1,9.874580383E0,9.878015745E0
7.914309940E-1,1.740778536E-1,-1.794617027E-1,9.903294563E0,9.906450061E0
7.939300570E-1,1.692921966E-1,-1.507478207E-1,9.898509026E0,9.901104266E0
7.964291190E-1,2.171486616E-1,-1.459621787E-1,9.898509026E0,9.901966442E0
7.989281820E-1,2.123630047E-1,-1.507478207E-1,9.912865639E0,9.916286004E0
8.014272960E-1,1.884347796E-1,-1.076770201E-1,9.888937950E0,9.891319214E0
8.039264110E-1,1.980060786E-1,-1.172483116E-1,9.893723488E0,9.896399246E0
8.064262550E-1,1.884347796E-1,-1.651047617E-1,9.932008743E0,9.935168087E0
8.089389630E-1,2.171486616E-1,-1.172483116E-1,9.874580383E0,9.877663613E0
8.114516710E-1,1.884347796E-1,-1.698904037E-1,9.936794281E0,9.940032746E0
8.139515150E-1,1.932204217E-1,-1.603191197E-1,9.951150894E0,9.954317680E0
8.164512550E-1,2.171486616E-1,-1.268195957E-1,9.908080101E0,9.911270758E0
8.189510980E-1,1.692921966E-1,-1.603191197E-1,9.893723488E0,9.896470407E0
8.214509420E-1,1.932204217E-1,-1.316052526E-1,9.869794846E0,9.872563212E0
8.239507340E-1,1.597209126E-1,-1.363908947E-1,9.908080101E0,9.910305976E0
8.264500570E-1,2.027917206E-1,-1.316052526E-1,9.893723488E0,9.896676658E0
8.289408380E-1,1.645065546E-1,-1.555334777E-1,9.908080101E0,9.910666191E0
8.314315670E-1,2.075773627E-1,-1.124626622E-1,9.893723488E0,9.896539833E0
8.339308900E-1,1.501496136E-1,-1.411765367E-1,9.941579819E0,9.943715855E0
8.364301610E-1,1.836491376E-1,-1.268195957E-1,9.908080101E0,9.910593398E0
8.389294840E-1,1.549352705E-1,-1.507478207E-1,9.941579819E0,9.943929763E0
8.414288590E-1,1.501496136E-1,-1.076770201E-1,9.912865639E0,9.914587456E0
8.439281820E-1,1.740778536E-1,-1.507478207E-1,9.912865639E0,9.915539984E0
8.464280780E-1,1.884347796E-1,-9.332008660E-2,9.908080101E0,9.910311175E0
8.489377130E-1,1.549352705E-1,-1.507478207E-1,9.898509026E0,9.900869193E0
8.514473480E-1,1.788634956E-1,-1.459621787E-1,9.893723488E0,9.896416602E0
8.539472440E-1,1.549352705E-1,-7.896314561E-2,9.936794281E0,9.938315788E0
8.564470360E-1,1.597209126E-1,-1.172483116E-1,9.903294563E0,9.905276429E0
8.589469320E-1,1.597209126E-1,-1.459621787E-1,9.936794281E0,9.939149677E0
8.614468280E-1,1.645065546E-1,-1.124626622E-1,9.912865639E0,9.914868402E0
8.639467230E-1,1.884347796E-1,-1.603191197E-1,9.879366875E0,9.882464254E0
8.664465670E-1,1.884347796E-1,-1.124626622E-1,9.908080101E0,9.910509916E0
8.689460980E-1,2.027917206E-1,-1.603191197E-1,9.941579819E0,9.944940221E0
8.714456300E-1,2.362912297E-1,-1.698904037E-1,9.927223206E0,9.931488150E0
8.739454730E-1,1.884347796E-1,-1.555334777E-1,9.898509026E0,9.901524088E0
8.764453170E-1,1.884347796E-1,-1.124626622E-1,9.941579819E0,9.944001449E0
8.789451610E-1,2.027917206E-1,-1.268195957E-1,9.903294563E0,9.906182458E0
8.814450050E-1,2.171486616E-1,-1.507478207E-1,9.912865639E0,9.916389646E0
8.839449000E-1,1.597209126E-1,-1.363908947E-1,9.951150894E0,9.953367137E0
8.864444840E-1,2.219343036E-1,-1.507478207E-1,9.941579819E0,9.945199296E0
8.889391710E-1,1.501496136E-1,-1.746760458E-1,9.893723488E0,9.896404452E0
8.914338070E-1,1.501496136E-1,-1.172483116E-1,9.946365356E0,9.948189578E0
8.939333900E-1,2.362912297E-1,-1.268195957E-1,9.936794281E0,9.940412332E0
8.964329730E-1,1.501496136E-1,-1.459621787E-1,9.927223206E0,9.929431526E0
8.989325050E-1,1.932204217E-1,-1.220339537E-1,9.941579819E0,9.944206138E0
9.014320880E-1,1.645065546E-1,-1.268195957E-1,9.922437668E0,9.924611574E0
9.039316710E-1,1.692921966E-1,-1.459621787E-1,9.922437668E0,9.924955117E0
9.064305780E-1,2.075773627E-1,-1.507478207E-1,9.912865639E0,9.916184671E0
9.089174000E-1,1.884347796E-1,-1.507478207E-1,9.903294563E0,9.906234188E0
9.114042230E-1,1.932204217E-1,-1.220339537E-1,9.879366875E0,9.882009728E0
9.139031300E-1,1.453639716E-1,-1.794617027E-1,9.874580383E0,9.877280746E0
9.164020360E-1,2.219343036E-1,-1.220339537E-1,9.898509026E0,9.901748737E0
9.189008900E-1,1.836491376E-1,-1.651047617E-1,9.898509026E0,9.901589141E0
9.213997960E-1,2.075773627E-1,-1.698904037E-1,9.888937950E0,9.892575241E0
9.238986500E-1,2.123630047E-1,-1.363908947E-1,9.946365356E0,9.949567042E0
9.263977130E-1,2.123630047E-1,-1.459621787E-1,9.879366875E0,9.882726995E0
9.288997960E-1,1.357926875E-1,-1.411765367E-1,9.927223206E0,9.929155606E0
9.314018800E-1,2.123630047E-1,-1.363908947E-1,9.922437668E0,9.925647072E0
9.339009420E-1,2.123630047E-1,-1.268195957E-1,9.941579819E0,9.944656382E0
9.363999530E-1,1.884347796E-1,-1.268195957E-1,9.888937950E0,9.891546121E0
9.388990150E-1,2.075773627E-1,-1.555334777E-1,9.912865639E0,9.916258579E0
9.413980780E-1,1.836491376E-1,-1.507478207E-1,9.879366875E0,9.882223523E0
9.438971400E-1,1.884347796E-1,-1.411765367E-1,9.912865639E0,9.915661534E0
9.463968280E-1,1.980060786E-1,-1.220339537E-1,9.884152412E0,9.886888672E0
9.489078170E-1,2.123630047E-1,-1.411765367E-1,9.903294563E0,9.906577213E0
9.514188070E-1,1.692921966E-1,-1.268195957E-1,9.888937950E0,9.891199970E0
9.539184940E-1,1.884347796E-1,-1.603191197E-1,9.912865639E0,9.915952554E0
9.564181300E-1,2.219343036E-1,-1.411765367E-1,9.975079536E0,9.978546859E0
9.589178170E-1,1.836491376E-1,-1.172483116E-1,9.912865639E0,9.915259923E0
9.614175570E-1,1.836491376E-1,-1.124626622E-1,9.917651176E0,9.919988897E0
9.639172440E-1,1.980060786E-1,-1.316052526E-1,9.917651176E0,9.920500552E0
9.664169320E-1,1.645065546E-1,-1.363908947E-1,9.879366875E0,9.881677728E0
9.689166710E-1,1.549352705E-1,-1.411765367E-1,9.888937950E0,9.891159160E0
9.714163590E-1,2.171486616E-1,-1.555334777E-1,9.927223206E0,9.930815917E0
9.739160980E-1,1.836491376E-1,-1.316052526E-1,9.908080101E0,9.910655792E0
9.764177130E-1,1.645065546E-1,-1.842473447E-1,9.927223206E0,9.930295568E0
9.789174530E-1,2.027917206E-1,-1.076770201E-1,9.922437668E0,9.925093858E0
9.814171920E-1,1.980060786E-1,-1.172483116E-1,9.936794281E0,9.939458444E0
9.839169320E-1,1.980060786E-1,-1.172483116E-1,1.001336479E1,1.001600859E1
9.864166710E-1,1.740778536E-1,-1.507478207E-1,9.927223206E0,9.929893684E0
9.889164630E-1,1.932204217E-1,-1.028913707E-1,9.869794846E0,9.872222195E0
9.914162030E-1,1.692921966E-1,-1.555334777E-1,9.840482712E0,9.843167707E0
9.939616190E-1,2.027917206E-1,-1.316052526E-1,9.854840279E0,9.857805098E0
9.965070880E-1,1.788634956E-1,-1.698904037E-1,9.917651176E0,9.920718712E0
9.990525050E-1,1.884347796E-1,-1.411765367E-1,9.912865639E0,9.915661534E0
1.001555005E0,2.027917206E-1,-1.316052526E-1,9.908080101E0,9.911028994E0
1.004057505E0,1.453639716E-1,-1.603191197E-1,9.912865639E0,9.915227586E0
1.006560005E0,1.740778536E-1,-1.316052526E-1,9.932008743E0,9.934405907E0
1.009062557E0,1.932204217E-1,-1.507478207E-1,9.951150894E0,9.954168130E0
1.011565057E0,1.645065546E-1,-1.268195957E-1,9.970293999E0,9.972457472E0
1.014066515E0,1.884347796E-1,-1.698904037E-1,9.879366875E0,9.882624159E0
1.016548130E0,2.362912297E-1,-1.459621787E-1,9.908080101E0,9.911972043E0
1.019029692E0,1.980060786E-1,-1.363908947E-1,9.850054741E0,9.852988749E0
1.021531150E0,1.884347796E-1,-1.220339537E-1,9.874580383E0,9.877132058E0
1.024032557E0,2.075773627E-1,-1.411765367E-1,9.884152412E0,9.887339788E0
1.026533963E0,1.645065546E-1,-1.411765367E-1,9.908080101E0,9.910451277E0
1.029035421E0,1.357926875E-1,-1.172483116E-1,9.884152412E0,9.885780482E0
1.031536828E0,2.171486616E-1,-1.603191197E-1,9.903294563E0,9.906972240E0
1.034038286E0,1.788634956E-1,-1.459621787E-1,9.888937950E0,9.891632367E0
1.036539744E0,1.884347796E-1,-1.172483116E-1,9.884152412E0,9.886643705E0
1.039041150E0,1.884347796E-1,-1.268195957E-1,9.903294563E0,9.905898954E0
1.041491150E0,2.075773627E-1,-1.316052526E-1,9.908080101E0,9.911128069E0
1.043941150E0,2.075773627E-1,-1.363908947E-1,9.922437668E0,9.925545834E0
1.046391150E0,1.597209126E-1,-1.698904037E-1,9.927223206E0,9.929961435E0
1.048889432E0,1.740778536E-1,-1.507478207E-1,9.912865639E0,9.915539984E0
1.051376932E0,1.692921966E-1,-1.411765367E-1,9.879366875E0,9.881825768E0
1.053875213E0,1.788634956E-1,-1.459621787E-1,9.898509026E0,9.901200838E0
1.056373546E0,2.458625287E-1,-1.076770201E-1,9.932008743E0,9.935634877E0
1.058871828E0,1.932204217E-1,-1.268195957E-1,9.912865639E0,9.915559617E0
1.061370890E0,1.932204217E-1,-1.268195957E-1,9.927223206E0,9.929913288E0
1.063883494E0,1.932204217E-1,-1.555334777E-1,9.884152412E0,9.887264217E0
1.066396046E0,2.027917206E-1,-1.363908947E-1,9.908080101E0,9.911093696E0
1.068895109E0,1.740778536E-1,-1.363908947E-1,9.922437668E0,9.924901755E0
1.071394171E0,1.884347796E-1,-1.746760458E-1,9.932008743E0,9.935331754E0
1.073893182E0,2.123630047E-1,-1.459621787E-1,9.912865639E0,9.916214407E0
1.076392244E0,2.123630047E-1,-1.411765367E-1,9.859625816E0,9.862923000E0
1.078891255E0,1.788634956E-1,-1.220339537E-1,9.869794846E0,9.872169707E0
1.081389692E0,2.315055877E-1,-1.316052526E-1,9.874580383E0,9.878170505E0
1.083877296E0,2.075773627E-1,-1.411765367E-1,9.917651176E0,9.920827790E0
1.086364900E0,2.075773627E-1,-1.555334777E-1,9.912865639E0,9.916258579E0
1.088863338E0,1.692921966E-1,-1.842473447E-1,9.903294563E0,9.906454973E0
1.091361775E0,2.458625287E-1,-1.507478207E-1,9.946365356E0,9.950545568E0
1.093860161E0,1.357926875E-1,-1.603191197E-1,9.932008743E0,9.934230697E0
1.096358598E0,2.267199457E-1,-9.810572863E-2,9.936794281E0,9.939864549E0
1.098856984E0,1.836491376E-1,-1.363908947E-1,9.932008743E0,9.934642780E0
1.101355421E0,1.836491376E-1,-1.268195957E-1,9.932008743E0,9.934515987E0
1.103854275E0,1.836491376E-1,-1.220339537E-1,9.936794281E0,9.939240407E0
1.106353130E0,1.405783296E-1,-1.603191197E-1,9.898509026E0,9.900805291E0
1.108851567E0,2.123630047E-1,-1.363908947E-1,9.888937950E0,9.892158223E0
1.111350005E0,1.597209126E-1,-1.507478207E-1,9.927223206E0,9.929652373E0
1.113848442E0,1.740778536E-1,-1.459621787E-1,9.917651176E0,9.920252664E0
1.116346880E0,2.315055877E-1,-1.459621787E-1,9.908080101E0,9.911859113E0
1.118845317E0,1.405783296E-1,-1.698904037E-1,9.888937950E0,9.891396201E0
1.121344171E0,2.075773627E-1,-1.411765367E-1,9.908080101E0,9.911259782E0
1.123850161E0,1.405783296E-1,-1.268195957E-1,9.912865639E0,9.914673502E0
1.126356098E0,1.836491376E-1,-1.124626622E-1,9.903294563E0,9.905635672E0
1.128854953E0,1.597209126E-1,-1.411765367E-1,9.912865639E0,9.915157425E0
1.131353807E0,2.027917206E-1,-1.555334777E-1,9.936794281E0,9.940080268E0
1.133852609E0,1.884347796E-1,-9.332008660E-2,9.908080101E0,9.910311175E0
1.136351463E0,1.597209126E-1,-1.220339537E-1,9.884152412E0,9.886196031E0
1.138850317E0,1.884347796E-1,-1.172483116E-1,9.879366875E0,9.881859373E0
1.141349848E0,2.219343036E-1,-1.603191197E-1,9.874580383E0,9.878375109E0
1.143861255E0,2.075773627E-1,-1.603191197E-1,9.922437668E0,9.925903478E0
1.146372661E0,1.836491376E-1,-1.411765367E-1,9.932008743E0,9.934709633E0
1.148872192E0,2.315055877E-1,-8.853443712E-2,9.960722923E0,9.963806217E0
1.151371723E0,2.123630047E-1,-1.651047617E-1,9.960722923E0,9.964354409E0
1.153871255E0,1.980060786E-1,-1.124626622E-1,9.932008743E0,9.934618862E0
1.156370786E0,2.315055877E-1,-1.268195957E-1,9.917651176E0,9.921163385E0
1.158870317E0,1.645065546E-1,-1.459621787E-1,9.903294563E0,9.905736246E0
1.161369744E0,1.884347796E-1,-1.316052526E-1,9.888937950E0,9.891608635E0
1.163866932E0,1.980060786E-1,-1.603191197E-1,9.884152412E0,9.887435337E0
1.166364119E0,1.262213886E-1,-1.316052526E-1,9.946365356E0,9.948036770E0
1.168863546E0,2.267199457E-1,-1.172483116E-1,9.936794281E0,9.940071915E0
1.171362921E0,1.692921966E-1,-1.124626622E-1,9.917651176E0,9.919733492E0
1.173862296E0,1.932204217E-1,-1.507478207E-1,9.946365356E0,9.949384043E0
1.176361723E0,2.267199457E-1,-1.603191197E-1,9.979865074E0,9.983727313E0
1.178861098E0,1.836491376E-1,-9.810572863E-2,9.922437668E0,9.924621958E0
1.181360005E0,2.506481707E-1,-1.555334777E-1,9.903294563E0,9.907686833E0
1.183849692E0,1.453639716E-1,-1.316052526E-1,9.903294563E0,9.905235678E0
1.186339380E0,1.932204217E-1,-1.316052526E-1,9.879366875E0,9.882132559E0
1.188838286E0,2.267199457E-1,-1.363908947E-1,9.917651176E0,9.921179832E0
1.191337140E0,1.740778536E-1,-1.507478207E-1,9.932008743E0,9.934677935E0
1.193835942E0,1.549352705E-1,-1.411765367E-1,9.941579819E0,9.943789270E0
1.196334848E0,2.123630047E-1,-1.555334777E-1,9.898509026E0,9.902008364E0
1.198833703E0,2.410768867E-1,-9.810572863E-2,9.927223206E0,9.930634591E0
1.201332921E0,1.310070455E-1,-1.555334777E-1,9.908080101E0,9.910166739E0
1.203838494E0,2.650051117E-1,-1.746760458E-1,9.936794281E0,9.941861999E0
1.206344015E0,1.453639716E-1,-1.220339537E-1,9.903294563E0,9.905113133E0
1.208843234E0,2.123630047E-1,-1.316052526E-1,9.917651176E0,9.920797490E0
1.211342453E0,1.980060786E-1,-9.332008660E-2,9.912865639E0,9.915282155E0
1.213841671E0,1.549352705E-1,-1.411765367E-1,9.884152412E0,9.886374698E0
1.216340890E0,1.740778536E-1,-1.459621787E-1,9.932008743E0,9.934606471E0
1.218840161E0,2.267199457E-1,-1.363908947E-1,9.898509026E0,9.902044503E0
1.221339848E0,2.267199457E-1,-1.555334777E-1,9.903294563E0,9.907110366E0
1.223847557E0,1.788634956E-1,-1.268195957E-1,9.908080101E0,9.910505872E0
1.226355213E0,1.405783296E-1,-1.172483116E-1,9.951150894E0,9.952834448E0
1.228854900E0,2.123630047E-1,-1.555334777E-1,9.874580383E0,9.878088198E0
1.231354588E0,2.027917206E-1,-1.603191197E-1,9.922437668E0,9.925804550E0
1.233854223E0,1.357926875E-1,-1.411765367E-1,9.879366875E0,9.881308634E0
1.236353911E0,1.980060786E-1,-1.507478207E-1,9.908080101E0,9.911204902E0
1.238853598E0,1.166501045E-1,-1.172483116E-1,9.917651176E0,9.919030158E0
1.241352400E0,1.405783296E-1,-1.746760458E-1,9.888937950E0,9.891479554E0
1.243835786E0,1.836491376E-1,-1.507478207E-1,9.927223206E0,9.930066087E0
1.246319119E0,1.549352705E-1,-1.268195957E-1,9.874580383E0,9.876610041E0
1.248817921E0,2.027917206E-1,-1.746760458E-1,9.970293999E0,9.973885834E0
1.251316723E0,1.836491376E-1,-1.316052526E-1,9.888937950E0,9.891518626E0
1.253815473E0,2.362912297E-1,-1.028913707E-1,9.884152412E0,9.887511775E0
1.256314275E0,2.315055877E-1,-1.172483116E-1,9.960722923E0,9.964102727E0
1.258813078E0,2.315055877E-1,-1.316052526E-1,9.927223206E0,9.930794296E0
1.261312088E0,1.597209126E-1,-1.411765367E-1,9.864411354E0,9.866714395E0
1.263814953E0,2.123630047E-1,-1.316052526E-1,9.845269203E0,9.848438641E0
1.266317765E0,1.980060786E-1,-1.363908947E-1,9.893723488E0,9.896644549E0
1.268816775E0,1.884347796E-1,-1.555334777E-1,9.908080101E0,9.911092251E0
1.271315786E0,1.262213886E-1,-1.316052526E-1,9.879366875E0,9.881049622E0
1.273814744E0,1.836491376E-1,-1.842473447E-1,9.932008743E0,9.935415027E0
1.276313755E0,1.932204217E-1,-1.172483116E-1,9.898509026E0,9.901088941E0
1.278812817E0,1.501496136E-1,-1.411765367E-1,9.941579819E0,9.943715855E0
1.281312244E0,1.932204217E-1,-1.698904037E-1,9.908080101E0,9.911420088E0
1.283819015E0,1.932204217E-1,-1.268195957E-1,9.917651176E0,9.920343855E0
1.286325786E0,1.740778536E-1,-9.332008660E-2,9.874580383E0,9.876555548E0
1.288825213E0,1.740778536E-1,-1.268195957E-1,9.864411354E0,9.866762269E0
1.291324640E0,1.788634956E-1,-1.507478207E-1,9.922437668E0,9.925194523E0
1.293824067E0,2.123630047E-1,-1.507478207E-1,9.932008743E0,9.935422519E0
1.296323494E0,1.645065546E-1,-1.459621787E-1,9.893723488E0,9.896167532E0
1.298822973E0,2.123630047E-1,-1.411765367E-1,9.874580383E0,9.877872575E0
1.301321880E0,2.123630047E-1,-1.698904037E-1,9.979865074E0,9.983569887E0
1.303811880E0,2.315055877E-1,-1.172483116E-1,9.965508461E0,9.968886642E0
1.306301828E0,2.506481707E-1,-1.124626622E-1,9.893723488E0,9.897536906E0
1.308800734E0,1.405783296E-1,-1.220339537E-1,9.951150894E0,9.952891975E0
1.311299692E0,2.745763958E-1,-5.503492057E-2,9.912865639E0,9.916820368E0
1.313798598E0,1.692921966E-1,-1.268195957E-1,9.869794846E0,9.872061251E0
1.316297505E0,2.075773627E-1,-1.363908947E-1,9.888937950E0,9.892056643E0
1.318796463E0,2.410768867E-1,-2.081755698E-1,9.869794846E0,9.874933186E0
1.321295213E0,1.118644550E-1,-1.411765367E-1,9.917651176E0,9.919286735E0
1.323790786E0,2.267199457E-1,-1.507478207E-1,9.932008743E0,9.935739757E0
1.326286359E0,2.219343036E-1,-1.028913707E-1,9.908080101E0,9.911099473E0
1.328785109E0,1.788634956E-1,-1.124626622E-1,9.989436150E0,9.991670260E0
1.331283807E0,1.884347796E-1,-1.316052526E-1,9.975079536E0,9.977727164E0
1.333782557E0,1.884347796E-1,-1.411765367E-1,9.912865639E0,9.915661534E0
1.336281307E0,1.262213886E-1,-1.268195957E-1,9.888937950E0,9.890556548E0
1.338780057E0,1.597209126E-1,-9.810572863E-2,9.826126099E0,9.827913797E0
1.341278807E0,1.597209126E-1,-1.507478207E-1,9.864411354E0,9.866855985E0
1.343777505E0,1.692921966E-1,-1.842473447E-1,9.941579819E0,9.944728062E0
1.346276880E0,2.171486616E-1,-1.363908947E-1,9.927223206E0,9.930534557E0
1.348791307E0,1.453639716E-1,-1.938186288E-1,9.917651176E0,9.920609921E0
1.351305682E0,2.075773627E-1,-1.220339537E-1,9.994221687E0,9.997121975E0
1.353805057E0,2.075773627E-1,-1.411765367E-1,1.001336479E1,1.001651105E1
1.356304432E0,1.645065546E-1,-1.555334777E-1,9.979865074E0,9.982432568E0
1.358803807E0,1.501496136E-1,-1.459621787E-1,9.936794281E0,9.939000475E0
1.361303182E0,1.884347796E-1,-1.363908947E-1,9.917651176E0,9.920378773E0
1.363802557E0,1.405783296E-1,-1.698904037E-1,9.946365356E0,9.948809417E0
1.366301567E0,1.788634956E-1,-1.124626622E-1,9.826126099E0,9.828397332E0
1.368794223E0,1.932204217E-1,-1.459621787E-1,9.850054741E0,9.853030878E0
1.371286828E0,1.645065546E-1,-1.411765367E-1,9.903294563E0,9.905666885E0
1.373785838E0,1.740778536E-1,-1.268195957E-1,9.879366875E0,9.881714232E0
1.376284848E0,2.410768867E-1,-1.411765367E-1,9.884152412E0,9.888099807E0
1.378783807E0,2.075773627E-1,-1.172483116E-1,9.970293999E0,9.973143835E0
1.381282817E0,2.362912297E-1,-1.220339537E-1,9.984650612E0,9.988191712E0
1.383781828E0,1.549352705E-1,-1.268195957E-1,9.912865639E0,9.914887459E0
1.386280838E0,2.027917206E-1,-1.507478207E-1,9.927223206E0,9.930438558E0
1.388779796E0,2.267199457E-1,-1.220339537E-1,9.898509026E0,9.901857157E0
1.391329432E0,1.405783296E-1,-1.124626622E-1,9.927223206E0,9.928855457E0
1.393879067E0,1.836491376E-1,-1.220339537E-1,9.879366875E0,9.881827216E0
1.396428703E0,2.027917206E-1,-1.124626622E-1,9.912865639E0,9.915577517E0
1.398930838E0,1.597209126E-1,-1.363908947E-1,9.893723488E0,9.895952592E0
1.401432921E0,1.980060786E-1,-1.316052526E-1,9.936794281E0,9.939638169E0
1.403935005E0,2.362912297E-1,-1.651047617E-1,9.932008743E0,9.936190961E0
1.406437140E0,1.788634956E-1,-1.746760458E-1,9.903294563E0,9.906449772E0
1.408939223E0,1.884347796E-1,-1.459621787E-1,9.951150894E0,9.954005060E0
1.411389223E0,1.740778536E-1,-1.459621787E-1,9.975079536E0,9.977666050E0
1.413839223E0,1.740778536E-1,-1.555334777E-1,9.912865639E0,9.915613896E0
1.416289223E0,1.501496136E-1,-1.316052526E-1,9.912865639E0,9.914876198E0
1.418786619E0,2.315055877E-1,-1.028913707E-1,9.835697174E0,9.838959313E0
1.421270734E0,1.645065546E-1,-1.651047617E-1,9.879366875E0,9.882115757E0
1.423754848E0,1.692921966E-1,-1.507478207E-1,9.884152412E0,9.886751421E0
1.426252244E0,1.740778536E-1,-1.794617027E-1,9.879366875E0,9.882530012E0
1.428749640E0,1.788634956E-1,-1.746760458E-1,9.941579819E0,9.944722880E0
1.431246984E0,2.123630047E-1,-1.363908947E-1,9.941579819E0,9.944783045E0
1.433744380E0,1.645065546E-1,-1.794617027E-1,1.000857925E1,1.001153972E1
1.436241723E0,1.692921966E-1,-1.507478207E-1,9.946365356E0,9.948948113E0
1.438757348E0,1.788634956E-1,-1.076770201E-1,9.854840279E0,9.857051456E0
1.441272973E0,1.405783296E-1,-1.316052526E-1,9.869794846E0,9.871673237E0
1.443788598E0,1.692921966E-1,-1.651047617E-1,9.854840279E0,9.857677026E0
1.446287088E0,1.692921966E-1,-1.363908947E-1,9.879366875E0,9.881758556E0
1.448785525E0,1.405783296E-1,-1.363908947E-1,9.830911636E0,9.832862673E0
1.451284015E0,1.836491376E-1,-1.411765367E-1,9.879366875E0,9.882082152E0
1.453782453E0,2.123630047E-1,-1.651047617E-1,9.903294563E0,9.906947100E0
1.456280890E0,1.980060786E-1,-1.220339537E-1,9.941579819E0,9.944300276E0
1.458779380E0,1.884347796E-1,-2.129612118E-1,9.922437668E0,9.926511442E0
1.461277817E0,2.027917206E-1,-1.411765367E-1,9.927223206E0,9.930297874E0
1.463776255E0,1.692921966E-1,-1.603191197E-1,9.893723488E0,9.896470407E0
1.466326255E0,1.262213886E-1,-1.746760458E-1,9.898509026E0,9.900854735E0
1.468876255E0,2.267199457E-1,-1.316052526E-1,9.903294563E0,9.906763603E0
1.471397453E0,1.166501045E-1,-1.651047617E-1,9.879366875E0,9.881434950E0
1.473918650E0,1.357926875E-1,-1.268195957E-1,9.845269203E0,9.847022319E0
1.476439848E0,1.549352705E-1,-1.459621787E-1,9.869794846E0,9.872089961E0
1.478941619E0,1.788634956E-1,-1.555334777E-1,9.893723488E0,9.896562396E0
1.481443390E0,1.310070455E-1,-1.316052526E-1,9.927223206E0,9.928959833E0
1.483945161E0,2.554338276E-1,-1.268195957E-1,9.917651176E0,9.921750577E0
1.486395161E0,1.788634956E-1,-1.651047617E-1,9.965508461E0,9.968480858E0
1.488845161E0,2.506481707E-1,-1.172483116E-1,9.936794281E0,9.940646471E0
1.491309275E0,1.597209126E-1,-1.268195957E-1,9.922437668E0,9.924533402E0
1.493773442E0,2.458625287E-1,-1.555334777E-1,9.955936432E0,9.960186207E0
1.496237557E0,1.980060786E-1,-1.411765367E-1,9.903294563E0,9.906279848E0
1.498734119E0,1.836491376E-1,-1.603191197E-1,9.917651176E0,9.920646858E0
1.501230682E0,1.740778536E-1,-1.363908947E-1,9.888937950E0,9.891410383E0
1.503727244E0,2.458625287E-1,-1.172483116E-1,9.932008743E0,9.935743215E0
1.506224640E0,2.267199457E-1,-1.363908947E-1,9.888937950E0,9.892476848E0
1.508751463E0,2.315055877E-1,-1.172483116E-1,9.898509026E0,9.901910065E0
1.511248859E0,2.410768867E-1,-1.363908947E-1,9.951150894E0,9.955005006E0
1.513746255E0,1.836491376E-1,-1.555334777E-1,9.922437668E0,9.925355759E0
1.516243598E0,1.836491376E-1,-1.363908947E-1,9.941579819E0,9.944211320E0
1.518740994E0,2.506481707E-1,-1.651047617E-1,9.874580383E0,9.879140744E0
1.521238390E0,1.884347796E-1,-1.363908947E-1,9.879366875E0,9.882105038E0
1.523735786E0,2.027917206E-1,-1.172483116E-1,9.912865639E0,9.915632951E0
1.526233755E0,1.980060786E-1,-1.555334777E-1,9.908080101E0,9.911278846E0
1.528752453E0,1.836491376E-1,-1.268195957E-1,9.879366875E0,9.881887475E0
1.531250421E0,1.740778536E-1,-1.316052526E-1,9.888937950E0,9.891345552E0
1.533748390E0,1.692921966E-1,-1.363908947E-1,9.903294563E0,9.905680468E0
1.536246359E0,1.740778536E-1,-1.459621787E-1,9.932008743E0,9.934606471E0
1.538744328E0,1.740778536E-1,-1.172483116E-1,9.960722923E0,9.962933876E0
1.541242296E0,1.549352705E-1,-1.220339537E-1,9.932008743E0,9.933966725E0
1.543740369E0,1.645065546E-1,-1.172483116E-1,9.932008743E0,9.934062978E0
1.546240317E0,2.123630047E-1,-1.363908947E-1,9.932008743E0,9.935215055E0
1.548740265E0,1.262213886E-1,-1.172483116E-1,9.922437668E0,9.923933105E0
1.551238338E0,2.362912297E-1,-1.316052526E-1,9.898509026E0,9.902203513E0
1.553736463E0,1.692921966E-1,-1.363908947E-1,9.927223206E0,9.929603361E0
1.556234536E0,1.788634956E-1,-1.555334777E-1,9.908080101E0,9.910914897E0
1.558732609E0,1.836491376E-1,-1.316052526E-1,9.955936432E0,9.958499746E0
1.561230630E0,1.788634956E-1,-1.459621787E-1,9.912865639E0,9.915553554E0
1.563729119E0,1.740778536E-1,-1.268195957E-1,9.941579819E0,9.943912490E0
1.566234484E0,1.836491376E-1,-1.459621787E-1,9.908080101E0,9.910856837E0
1.568739796E0,1.692921966E-1,-1.316052526E-1,9.936794281E0,9.939107625E0
1.571238286E0,1.405783296E-1,-1.411765367E-1,9.927223206E0,9.929222208E0
1.573736723E0,1.884347796E-1,-1.603191197E-1,9.955936432E0,9.959009997E0
1.576235161E0,1.788634956E-1,-1.507478207E-1,9.951150894E0,9.953899797E0
1.578733650E0,1.884347796E-1,-1.268195957E-1,9.884152412E0,9.886761845E0
1.581232140E0,1.597209126E-1,-1.268195957E-1,9.932008743E0,9.934102459E0
1.583730682E0,1.597209126E-1,-1.316052526E-1,9.903294563E0,9.905456775E0
1.586230838E0,1.788634956E-1,-1.316052526E-1,9.869794846E0,9.872292661E0
1.588730994E0,1.740778536E-1,-1.555334777E-1,9.869794846E0,9.872555093E0
1.591229536E0,1.214357466E-1,-1.459621787E-1,9.932008743E0,9.933823497E0
1.593728130E0,1.501496136E-1,-1.124626622E-1,9.946365356E0,9.948134326E0
1.596226671E0,1.501496136E-1,-9.810572863E-2,9.951150894E0,9.952767141E0
1.598725213E0,1.692921966E-1,-1.698904037E-1,9.922437668E0,9.925335857E0
1.601223755E0,1.645065546E-1,-1.316052526E-1,9.917651176E0,9.919888467E0
1.603722817E0,1.549352705E-1,-1.268195957E-1,9.932008743E0,9.934026667E0
1.606230786E0,1.788634956E-1,-1.651047617E-1,9.922437668E0,9.925422964E0
1.608738703E0,1.836491376E-1,-1.220339537E-1,9.936794281E0,9.939240407E0
1.611237765E0,1.980060786E-1,-1.411765367E-1,9.946365356E0,9.949337718E0
1.613736828E0,1.740778536E-1,-1.363908947E-1,9.917651176E0,9.920116453E0
1.616235838E0,1.549352705E-1,-1.411765367E-1,9.893723488E0,9.895943624E0
1.618734900E0,1.645065546E-1,-1.268195957E-1,9.922437668E0,9.924611574E0
1.621233911E0,1.788634956E-1,-1.459621787E-1,9.922437668E0,9.925122991E0
1.623732713E0,1.884347796E-1,-1.603191197E-1,9.898509026E0,9.901600417E0
1.626227192E0,1.645065546E-1,-1.555334777E-1,9.898509026E0,9.901097616E0
1.628721671E0,1.884347796E-1,-1.220339537E-1,9.845269203E0,9.847828473E0
1.631220473E0,1.788634956E-1,-1.411765367E-1,9.908080101E0,9.910699988E0
1.633719275E0,1.836491376E-1,-1.316052526E-1,9.864411354E0,9.866998445E0
1.636218078E0,1.884347796E-1,-1.459621787E-1,9.917651176E0,9.920514981E0
1.638716880E0,1.740778536E-1,-1.507478207E-1,9.893723488E0,9.896403006E0
1.641215630E0,1.836491376E-1,-1.172483116E-1,9.864411354E0,9.866817396E0
1.643714432E0,2.123630047E-1,-1.459621787E-1,9.917651176E0,9.920998330E0
1.646213025E0,2.027917206E-1,-1.316052526E-1,9.917651176E0,9.920597224E0
1.648711619E0,2.362912297E-1,-1.651047617E-1,9.927223206E0,9.931407438E0
1.651210421E0,1.980060786E-1,-1.028913707E-1,9.917651176E0,9.920161183E0
1.653709171E0,1.980060786E-1,-1.363908947E-1,9.922437668E0,9.925350279E0
1.656207921E0,2.075773627E-1,-1.172483116E-1,9.932008743E0,9.934869562E0
1.658706723E0,2.027917206E-1,-1.316052526E-1,9.908080101E0,9.911028994E0
1.661205525E0,2.123630047E-1,-1.555334777E-1,9.888937950E0,9.892440674E0
1.663705005E0,2.075773627E-1,-1.316052526E-1,9.830911636E0,9.833983522E0
1.666215994E0,1.836491376E-1,-1.651047617E-1,9.850054741E0,9.853150003E0
1.668726984E0,2.027917206E-1,-1.603191197E-1,9.850054741E0,9.853446357E0
1.671226463E0,2.171486616E-1,-1.363908947E-1,9.917651176E0,9.920965723E0
1.673725942E0,2.075773627E-1,-1.411765367E-1,9.898509026E0,9.901691780E0
1.676225369E0,2.075773627E-1,-1.316052526E-1,9.903294563E0,9.906344003E0
1.678724848E0,2.123630047E-1,-1.603191197E-1,9.912865639E0,9.916436126E0
1.681224275E0,2.027917206E-1,-1.363908947E-1,9.869794846E0,9.872820127E0
1.683723807E0,1.453639716E-1,-1.459621787E-1,9.879366875E0,9.881514332E0
1.686224588E0,1.549352705E-1,-1.220339537E-1,9.917651176E0,9.919611992E0
1.688725369E0,1.884347796E-1,-1.603191197E-1,9.884152412E0,9.887248293E0
1.691224900E0,1.549352705E-1,-1.172483116E-1,9.874580383E0,9.876491779E0
1.693724484E0,1.788634956E-1,-1.411765367E-1,9.859625816E0,9.862258575E0
1.696224015E0,1.740778536E-1,-1.603191197E-1,9.898509026E0,9.901337599E0
1.698723546E0,2.315055877E-1,-1.124626622E-1,9.884152412E0,9.887502799E0
1.701223025E0,1.645065546E-1,-1.651047617E-1,9.922437668E0,9.925174621E0
1.703722400E0,1.980060786E-1,-1.316052526E-1,9.955936432E0,9.958774854E0
1.706218494E0,1.692921966E-1,-1.268195957E-1,9.879366875E0,9.881631085E0
1.708714536E0,1.836491376E-1,-1.507478207E-1,9.912865639E0,9.915712636E0
1.711213911E0,1.597209126E-1,-1.507478207E-1,9.903294563E0,9.905729599E0
1.713713234E0,1.549352705E-1,-1.172483116E-1,9.888937950E0,9.890846571E0
1.716212609E0,2.315055877E-1,-1.459621787E-1,9.874580383E0,9.878372211E0
1.718711932E0,9.272187948E-2,-1.651047617E-1,9.845269203E0,9.847090058E0
1.721211203E0,1.932204217E-1,-1.028913707E-1,9.888937950E0,9.891360601E0
1.723710057E0,1.645065546E-1,-1.651047617E-1,9.898509026E0,9.901252593E0
1.726199744E0,1.692921966E-1,-1.316052526E-1,9.893723488E0,9.896046900E0
1.728689380E0,1.692921966E-1,-1.316052526E-1,9.936794281E0,9.939107625E0
1.731188234E0,1.932204217E-1,-1.507478207E-1,9.917651176E0,9.920678601E0
1.733687036E0,1.980060786E-1,-1.842473447E-1,9.912865639E0,9.916554778E0
1.736185838E0,1.357926875E-1,-1.316052526E-1,9.941579819E0,9.943378143E0
1.738684692E0,1.884347796E-1,-1.603191197E-1,9.903294563E0,9.906384461E0
1.741183494E0,1.645065546E-1,-1.459621787E-1,9.888937950E0,9.891383177E0
1.743682348E0,2.075773627E-1,-1.603191197E-1,9.845269203E0,9.848762169E0
1.746181150E0,2.219343036E-1,-1.603191197E-1,9.898509026E0,9.902294582E0
1.748679953E0,1.645065546E-1,-1.555334777E-1,9.884152412E0,9.886744762E0
1.751178807E0,1.884347796E-1,-1.507478207E-1,9.917651176E0,9.920586547E0
1.753677661E0,1.932204217E-1,-1.316052526E-1,9.932008743E0,9.934759773E0
1.756176515E0,1.836491376E-1,-1.603191197E-1,9.932008743E0,9.935000096E0
1.758675317E0,1.788634956E-1,-1.603191197E-1,9.975079536E0,9.977971043E0
1.761174067E0,1.740778536E-1,-1.363908947E-1,9.951150894E0,9.953607873E0
1.763673390E0,2.027917206E-1,-9.332008660E-2,9.908080101E0,9.910594554E0
1.766181411E0,2.075773627E-1,-1.411765367E-1,9.922437668E0,9.925612749E0
1.768689380E0,2.027917206E-1,-1.268195957E-1,9.917651176E0,9.920534892E0
1.771188703E0,2.075773627E-1,-1.172483116E-1,9.903294563E0,9.906163674E0
1.773688025E0,2.027917206E-1,-1.363908947E-1,9.903294563E0,9.906309614E0
1.776187296E0,1.884347796E-1,-1.316052526E-1,9.888937950E0,9.891608635E0
1.778686619E0,1.884347796E-1,-1.555334777E-1,9.874580383E0,9.877602749E0
1.781185942E0,1.836491376E-1,-1.316052526E-1,9.898509026E0,9.901087207E0
1.783685682E0,2.267199457E-1,-1.363908947E-1,9.932008743E0,9.935532300E0
1.786192609E0,1.932204217E-1,-1.698904037E-1,9.917651176E0,9.920987942E0
1.788699484E0,1.501496136E-1,-1.268195957E-1,9.965508461E0,9.967446363E0
1.791199223E0,1.597209126E-1,-1.268195957E-1,9.932008743E0,9.934102459E0
1.793698963E0,1.357926875E-1,-1.316052526E-1,9.903294563E0,9.905099838E0
1.796198703E0,1.884347796E-1,-1.268195957E-1,9.903294563E0,9.905898954E0
1.798698442E0,1.645065546E-1,-1.268195957E-1,9.917651176E0,9.919826131E0
1.801198130E0,1.884347796E-1,-1.220339537E-1,9.903294563E0,9.905838842E0
1.803697192E0,2.458625287E-1,-1.363908947E-1,9.869794846E0,9.873798719E0
1.806184640E0,1.980060786E-1,-1.794617027E-1,9.922437668E0,9.926035572E0
1.808672088E0,1.645065546E-1,-1.268195957E-1,9.903294563E0,9.905472670E0
1.811171150E0,1.740778536E-1,-1.459621787E-1,9.951150894E0,9.953743626E0
1.813670213E0,1.597209126E-1,-1.411765367E-1,9.908080101E0,9.910372994E0
1.816169275E0,1.884347796E-1,-1.268195957E-1,9.922437668E0,9.925037035E0
1.818668338E0,2.267199457E-1,-1.651047617E-1,9.927223206E0,9.931184325E0
1.821167400E0,1.549352705E-1,-1.316052526E-1,9.936794281E0,9.938873450E0
1.823666723E0,2.171486616E-1,-1.507478207E-1,9.888937950E0,9.892470482E0
1.826170786E0,1.740778536E-1,-1.411765367E-1,9.888937950E0,9.891477528E0
1.828674796E0,2.075773627E-1,-1.555334777E-1,9.917651176E0,9.921042480E0
1.831174119E0,1.980060786E-1,-1.651047617E-1,9.898509026E0,9.901865830E0
1.833673442E0,1.932204217E-1,-1.316052526E-1,9.932008743E0,9.934759773E0
1.836172765E0,2.123630047E-1,-1.268195957E-1,9.951150894E0,9.954224499E0
1.838672088E0,2.075773627E-1,-1.363908947E-1,9.946365356E0,9.949466048E0
1.841171411E0,1.692921966E-1,-1.076770201E-1,9.927223206E0,9.929250463E0
1.843671046E0,2.171486616E-1,-1.651047617E-1,9.922437668E0,9.926186700E0
1.846175421E0,1.836491376E-1,-1.268195957E-1,9.869794846E0,9.872317889E0
1.848679796E0,2.075773627E-1,-1.220339537E-1,9.903294563E0,9.906221472E0
1.851179432E0,1.932204217E-1,-1.172483116E-1,9.917651176E0,9.920226114E0
1.853679015E0,1.932204217E-1,-1.363908947E-1,9.941579819E0,9.944392686E0
1.856178650E0,1.645065546E-1,-1.507478207E-1,9.879366875E0,9.881886316E0
1.858678234E0,1.980060786E-1,-1.124626622E-1,9.874580383E0,9.877205678E0
1.861177817E0,1.836491376E-1,-1.363908947E-1,9.927223206E0,9.929858511E0
1.863677505E0,1.597209126E-1,-1.268195957E-1,9.908080101E0,9.910178872E0
1.866178494E0,2.123630047E-1,-1.603191197E-1,9.893723488E0,9.897300881E0
1.868679432E0,1.932204217E-1,-1.268195957E-1,9.922437668E0,9.925129048E0
1.871179119E0,1.932204217E-1,-1.124626622E-1,9.932008743E0,9.934524632E0
1.873678755E0,1.836491376E-1,-1.651047617E-1,9.917651176E0,9.920725349E0
1.876178390E0,1.645065546E-1,-1.220339537E-1,9.884152412E0,9.886274506E0
1.878678078E0,2.075773627E-1,-1.363908947E-1,9.932008743E0,9.935113916E0
1.881177765E0,1.884347796E-1,-1.651047617E-1,9.898509026E0,9.901679059E0
1.883677036E0,1.932204217E-1,-1.172483116E-1,9.884152412E0,9.886736075E0
1.886169223E0,2.123630047E-1,-1.220339537E-1,9.917651176E0,9.920675138E0
1.888661359E0,2.171486616E-1,-1.507478207E-1,9.932008743E0,9.935525961E0
1.891160630E0,2.171486616E-1,-1.363908947E-1,9.903294563E0,9.906613913E0
1.893659900E0,2.315055877E-1,-1.268195957E-1,9.927223206E0,9.930732028E0
1.896159171E0,2.075773627E-1,-1.459621787E-1,9.908080101E0,9.911329104E0
1.898658442E0,2.219343036E-1,-1.459621787E-1,9.927223206E0,9.930776423E0
1.901157661E0,2.027917206E-1,-1.268195957E-1,9.922437668E0,9.925319993E0
1.903656775E0,2.027917206E-1,-1.268195957E-1,9.912865639E0,9.915750746E0
1.906153494E0,1.980060786E-1,-1.507478207E-1,9.854840279E0,9.857981955E0
1.908650213E0,1.980060786E-1,-1.459621787E-1,9.884152412E0,9.887212968E0
1.911149328E0,2.123630047E-1,-1.459621787E-1,9.879366875E0,9.882726995E0
1.913648442E0,1.740778536E-1,-1.268195957E-1,9.903294563E0,9.905636250E0
1.916147557E0,1.884347796E-1,-1.507478207E-1,9.932008743E0,9.934939871E0
1.918646671E0,2.027917206E-1,-1.172483116E-1,9.908080101E0,9.910848750E0
1.921145786E0,1.645065546E-1,-1.459621787E-1,9.912865639E0,9.915304964E0
1.923645213E0,2.362912297E-1,-1.603191197E-1,9.912865639E0,9.916977409E0
1.926149796E0,1.884347796E-1,-1.746760458E-1,9.893723488E0,9.897059353E0
1.928654328E0,1.549352705E-1,-1.459621787E-1,9.932008743E0,9.934289485E0
1.931153755E0,1.932204217E-1,-1.603191197E-1,9.951150894E0,9.954317680E0
1.933653182E0,1.692921966E-1,-1.890329868E-1,9.898509026E0,9.901761169E0
1.936152609E0,1.836491376E-1,-1.220339537E-1,9.917651176E0,9.920102023E0
1.938652036E0,2.171486616E-1,-1.076770201E-1,9.903294563E0,9.906260197E0
1.941151411E0,1.932204217E-1,-1.411765367E-1,9.903294563E0,9.906185348E0
1.943650994E0,1.740778536E-1,-1.220339537E-1,9.927223206E0,9.929499280E0
1.946152921E0,2.171486616E-1,-1.651047617E-1,9.922437668E0,9.926186700E0
1.948654796E0,1.788634956E-1,-1.459621787E-1,9.903294563E0,9.905985075E0
1.951154380E0,1.980060786E-1,-1.555334777E-1,9.917651176E0,9.920846835E0
1.953653911E0,2.267199457E-1,-1.651047617E-1,9.893723488E0,9.897698014E0
1.956153494E0,1.645065546E-1,-1.411765367E-1,9.917651176E0,9.920020064E0
1.958653025E0,1.932204217E-1,-1.507478207E-1,9.864411354E0,9.867455113E0
1.961152557E0,1.836491376E-1,-1.316052526E-1,9.864411354E0,9.866998445E0
1.963652140E0,1.884347796E-1,-1.507478207E-1,9.908080101E0,9.911018306E0
1.966151671E0,2.027917206E-1,-1.603191197E-1,9.908080101E0,9.911451861E0
1.968651203E0,2.171486616E-1,-1.076770201E-1,9.908080101E0,9.911044303E0
1.971150161E0,2.027917206E-1,-1.363908947E-1,9.955936432E0,9.958935545E0
1.973621567E0,2.171486616E-1,-1.507478207E-1,9.893723488E0,9.897254311E0
1.976120525E0,1.884347796E-1,-1.268195957E-1,9.922437668E0,9.925037035E0
1.978619484E0,1.836491376E-1,-1.507478207E-1,9.898509026E0,9.901360151E0
1.981118442E0,1.645065546E-1,-1.268195957E-1,9.893723488E0,9.895903702E0
1.983617400E0,1.980060786E-1,-1.842473447E-1,9.936794281E0,9.940474540E0
1.986116411E0,2.219343036E-1,-1.363908947E-1,9.922437668E0,9.925856466E0
1.988615421E0,1.932204217E-1,-1.507478207E-1,9.874580383E0,9.877621008E0
1.991115161E0,2.123630047E-1,-1.316052526E-1,9.932008743E0,9.935150510E0
1.993642296E0,1.740778536E-1,-1.172483116E-1,9.912865639E0,9.915087263E0
1.996142036E0,2.123630047E-1,-1.555334777E-1,9.927223206E0,9.930712426E0
1.998641775E0,2.075773627E-1,-1.363908947E-1,9.912865639E0,9.915976806E0
2.001141515E0,1.788634956E-1,-1.746760458E-1,9.922437668E0,9.925586791E0
2.003641255E0,1.836491376E-1,-1.555334777E-1,9.936794281E0,9.939708157E0
2.006140994E0,1.836491376E-1,-1.411765367E-1,9.932008743E0,9.934709633E0
2.008640734E0,2.075773627E-1,-1.316052526E-1,9.927223206E0,9.930265297E0
2.011140578E0,2.075773627E-1,-1.172483116E-1,9.898509026E0,9.901379523E0
2.013641723E0,1.932204217E-1,-1.459621787E-1,9.884152412E0,9.887118286E0
2.016142817E0,1.932204217E-1,-1.555334777E-1,9.888937950E0,9.892048250E0
2.018642661E0,2.123630047E-1,-1.555334777E-1,9.893723488E0,9.897224518E0
2.021142400E0,1.645065546E-1,-1.555334777E-1,9.908080101E0,9.910666191E0
2.023642244E0,1.884347796E-1,-1.363908947E-1,9.893723488E0,9.896457679E0
2.026142088E0,1.740778536E-1,-1.363908947E-1,9.922437668E0,9.924901755E0
2.028641880E0,2.075773627E-1,-1.507478207E-1,9.936794281E0,9.940105324E0
2.031141411E0,1.932204217E-1,-1.555334777E-1,9.912865639E0,9.915968433E0
2.033629953E0,1.645065546E-1,-1.459621787E-1,9.912865639E0,9.915304964E0
2.036129484E0,1.788634956E-1,-1.363908947E-1,9.932008743E0,9.934555466E0
2.038628963E0,1.932204217E-1,-1.411765367E-1,9.917651176E0,9.920537778E0
2.041128442E0,2.219343036E-1,-1.746760458E-1,9.912865639E0,9.916888208E0
2.043627973E0,1.645065546E-1,-1.794617027E-1,9.903294563E0,9.906286495E0
2.046127505E0,1.884347796E-1,-1.411765367E-1,9.927223206E0,9.930015058E0
2.048626984E0,2.075773627E-1,-1.555334777E-1,9.908080101E0,9.911474679E0
2.051126150E0,1.980060786E-1,-1.411765367E-1,9.908080101E0,9.911063944E0
2.053612765E0,1.932204217E-1,-1.316052526E-1,9.912865639E0,9.915621980E0
2.056111932E0,1.836491376E-1,-1.746760458E-1,9.888937950E0,9.892185426E0
2.058611046E0,2.027917206E-1,-1.363908947E-1,9.936794281E0,9.939799170E0
2.061110161E0,1.692921966E-1,-1.220339537E-1,9.903294563E0,9.905493190E0
2.063609328E0,2.171486616E-1,-1.603191197E-1,9.922437668E0,9.926108252E0
2.066108494E0,2.315055877E-1,-1.220339537E-1,9.903294563E0,9.906751755E0
2.068607661E0,2.315055877E-1,-1.411765367E-1,9.884152412E0,9.887871083E0
2.071106880E0,2.219343036E-1,-1.794617027E-1,9.922437668E0,9.926541725E0
2.073607140E0,2.027917206E-1,-1.603191197E-1,9.912865639E0,9.916235771E0
2.076107400E0,1.980060786E-1,-1.028913707E-1,9.893723488E0,9.896239563E0
2.078606619E0,1.884347796E-1,-1.459621787E-1,9.922437668E0,9.925300091E0
2.081105734E0,2.171486616E-1,-1.507478207E-1,9.903294563E0,9.906821975E0
2.083604953E0,1.884347796E-1,-1.651047617E-1,9.912865639E0,9.916031082E0
2.086104171E0,2.315055877E-1,-1.555334777E-1,9.884152412E0,9.888086489E0
2.088603390E0,1.836491376E-1,-1.363908947E-1,9.903294563E0,9.905936235E0
2.091102609E0,2.123630047E-1,-1.603191197E-1,9.903294563E0,9.906868500E0
2.093601619E0,2.075773627E-1,-1.651047617E-1,9.955936432E0,9.959468770E0
2.096100578E0,2.027917206E-1,-9.810572863E-2,9.927223206E0,9.929778940E0
2.098599796E0,2.315055877E-1,-1.363908947E-1,9.884152412E0,9.887803913E0
2.101098911E0,1.836491376E-1,-1.555334777E-1,9.888937950E0,9.891865924E0
2.103598130E0,1.980060786E-1,-1.507478207E-1,9.903294563E0,9.906420873E0
2.106097348E0,2.362912297E-1,-1.316052526E-1,9.908080101E0,9.911771021E0
2.108596515E0,1.836491376E-1,-1.411765367E-1,9.888937950E0,9.891650600E0
2.111096098E0,2.123630047E-1,-1.411765367E-1,9.922437668E0,9.925713986E0
2.113609900E0,1.836491376E-1,-1.220339537E-1,9.903294563E0,9.905748962E0
2.116109484E0,1.980060786E-1,-1.698904037E-1,9.912865639E0,9.916298419E0
2.118609067E0,2.027917206E-1,-1.459621787E-1,9.922437668E0,9.925583041E0
2.121108650E0,1.884347796E-1,-1.172483116E-1,9.912865639E0,9.915349717E0
2.123608234E0,1.692921966E-1,-1.124626622E-1,9.903294563E0,9.905379897E0
2.126107869E0,1.788634956E-1,-1.268195957E-1,9.898509026E0,9.900937142E0
2.128607453E0,1.692921966E-1,-1.411765367E-1,9.888937950E0,9.891394464E0
2.131107140E0,1.980060786E-1,-1.220339537E-1,9.917651176E0,9.920378196E0
2.133609275E0,1.980060786E-1,-1.603191197E-1,9.941579819E0,9.944843786E0
2.136108963E0,1.836491376E-1,-1.555334777E-1,9.903294563E0,9.906218293E0
2.138608598E0,1.788634956E-1,-1.411765367E-1,9.927223206E0,9.929838042E0
2.141108234E0,2.027917206E-1,-1.028913707E-1,9.936794281E0,9.939395942E0
2.143607921E0,1.501496136E-1,-1.651047617E-1,9.917651176E0,9.920161760E0
2.146107609E0,1.740778536E-1,-1.124626622E-1,9.932008743E0,9.934170757E0
2.148607244E0,1.597209126E-1,-1.746760458E-1,9.917651176E0,9.920475157E0
2.151106567E0,1.740778536E-1,-1.316052526E-1,9.884152412E0,9.886561179E0
2.153594275E0,1.597209126E-1,-1.172483116E-1,9.888937950E0,9.890922693E0
2.156093598E0,1.932204217E-1,-1.651047617E-1,9.912865639E0,9.916123178E0
2.158592921E0,2.027917206E-1,-1.651047617E-1,9.893723488E0,9.897178816E0
2.161092244E0,1.980060786E-1,-1.411765367E-1,9.893723488E0,9.896711660E0
2.163591567E0,2.027917206E-1,-1.603191197E-1,9.908080101E0,9.911451861E0
2.166090942E0,1.836491376E-1,-1.411765367E-1,9.888937950E0,9.891650600E0
2.168590265E0,2.075773627E-1,-1.172483116E-1,9.898509026E0,9.901379523E0
2.171090213E0,2.027917206E-1,-1.316052526E-1,9.936794281E0,9.939734655E0
2.173611307E0,1.836491376E-1,-1.603191197E-1,9.903294563E0,9.906294586E0
2.176111255E0,2.267199457E-1,-1.555334777E-1,9.922437668E0,9.926246112E0
2.178611150E0,1.788634956E-1,-1.555334777E-1,9.936794281E0,9.939620888E0
2.181111046E0,1.932204217E-1,-1.411765367E-1,9.927223206E0,9.930107025E0
2.183610994E0,2.267199457E-1,-1.363908947E-1,9.898509026E0,9.902044503E0
2.186110942E0,1.980060786E-1,-1.603191197E-1,9.898509026E0,9.901787190E0
2.188610838E0,1.932204217E-1,-1.268195957E-1,9.893723488E0,9.896422677E0
2.191110369E0,2.219343036E-1,-1.555334777E-1,9.903294563E0,9.907002004E0
2.193595317E0,2.267199457E-1,-1.555334777E-1,9.903294563E0,9.907110366E0
2.196094848E0,2.458625287E-1,-1.507478207E-1,9.893723488E0,9.897925931E0
2.198594328E0,2.602194548E-1,-1.124626622E-1,9.908080101E0,9.912134649E0
2.201093807E0,2.458625287E-1,-1.268195957E-1,9.908080101E0,9.911941428E0
2.203593338E0,2.315055877E-1,-1.316052526E-1,9.888937950E0,9.892522861E0
2.206092869E0,1.788634956E-1,-1.316052526E-1,9.879366875E0,9.881862271E0
2.208592400E0,2.075773627E-1,-1.651047617E-1,9.908080101E0,9.911629494E0
2.211092088E0,2.315055877E-1,-1.411765367E-1,9.908080101E0,9.911789795E0
2.213594900E0,2.219343036E-1,-1.411765367E-1,9.903294563E0,9.906787010E0
2.216097661E0,2.123630047E-1,-1.363908947E-1,9.879366875E0,9.882590266E0
2.218597348E0,2.027917206E-1,-1.555334777E-1,9.903294563E0,9.906591662E0
2.221096984E0,1.932204217E-1,-1.698904037E-1,9.917651176E0,9.920987942E0
2.223596671E0,1.932204217E-1,-1.459621787E-1,9.922437668E0,9.925392101E0
2.226096359E0,1.836491376E-1,-1.746760458E-1,9.898509026E0,9.901753363E0
2.228596046E0,1.836491376E-1,-1.411765367E-1,9.908080101E0,9.910787512E0
2.231094432E0,1.549352705E-1,-1.603191197E-1,9.917651176E0,9.920156854E0
2.233570005E0,1.597209126E-1,-1.459621787E-1,9.898509026E0,9.900873530E0
2.236045525E0,1.501496136E-1,-1.411765367E-1,9.884152412E0,9.886300857E0
2.238543911E0,1.836491376E-1,-1.603191197E-1,9.898509026E0,9.901510499E0
2.241042244E0,1.549352705E-1,-1.459621787E-1,9.917651176E0,9.919935219E0
2.243540630E0,1.692921966E-1,-1.363908947E-1,9.927223206E0,9.929603361E0
2.246039015E0,1.692921966E-1,-1.459621787E-1,9.908080101E0,9.910601197E0
2.248537400E0,1.549352705E-1,-1.363908947E-1,9.917651176E0,9.919799004E0
2.251064171E0,1.597209126E-1,-1.746760458E-1,9.922437668E0,9.925260287E0
2.253590890E0,1.788634956E-1,-1.603191197E-1,9.927223206E0,9.930128647E0
2.256090838E0,1.788634956E-1,-1.363908947E-1,9.908080101E0,9.910632972E0
2.258590734E0,1.788634956E-1,-1.507478207E-1,9.917651176E0,9.920409362E0
2.261090630E0,1.549352705E-1,-1.459621787E-1,9.908080101E0,9.910366350E0
2.263590578E0,1.597209126E-1,-1.459621787E-1,9.932008743E0,9.934365274E0
2.266090525E0,1.692921966E-1,-1.651047617E-1,9.903294563E0,9.906117435E0
2.268590473E0,1.740778536E-1,-1.555334777E-1,9.912865639E0,9.915613896E0
2.271089067E0,1.645065546E-1,-1.028913707E-1,9.927223206E0,9.929119277E0
2.273563911E0,1.884347796E-1,-1.507478207E-1,9.927223206E0,9.930155746E0
2.276038703E0,1.884347796E-1,-1.746760458E-1,9.917651176E0,9.920978996E0
2.278537296E0,1.884347796E-1,-1.411765367E-1,9.864411354E0,9.867220979E0
2.281035890E0,1.980060786E-1,-1.603191197E-1,9.908080101E0,9.911355100E0
2.283534484E0,1.884347796E-1,-1.411765367E-1,9.932008743E0,9.934799251E0
2.286033130E0,1.788634956E-1,-1.698904037E-1,9.908080101E0,9.911150599E0
2.288531775E0,1.980060786E-1,-1.459621787E-1,9.884152412E0,9.887212968E0
2.291031098E0,1.836491376E-1,-1.459621787E-1,9.898509026E0,9.901288446E0
2.293555525E0,1.932204217E-1,-1.698904037E-1,9.922437668E0,9.925772824E0
2.296054848E0,2.315055877E-1,-1.220339537E-1,9.927223206E0,9.930672067E0
2.298554171E0,2.506481707E-1,-1.794617027E-1,9.898509026E0,9.903308131E0
2.301053494E0,2.315055877E-1,-1.411765367E-1,9.903294563E0,9.907006049E0
2.303552817E0,2.027917206E-1,-1.316052526E-1,9.859625816E0,9.862589197E0
2.306052192E0,2.315055877E-1,-1.172483116E-1,9.874580383E0,9.877989661E0
2.308551567E0,2.410768867E-1,-1.411765367E-1,9.874580383E0,9.878531603E0
2.311050786E0,2.458625287E-1,-1.220339537E-1,9.898509026E0,9.902313952E0
2.313547973E0,2.410768867E-1,-1.459621787E-1,9.888937950E0,9.892952886E0
2.316045161E0,2.219343036E-1,-1.363908947E-1,9.893723488E0,9.897152205E0
2.318544380E0,2.362912297E-1,-1.459621787E-1,9.917651176E0,9.921539364E0
2.321043546E0,2.458625287E-1,-1.603191197E-1,9.884152412E0,9.888509469E0
2.323542765E0,2.219343036E-1,-1.890329868E-1,9.908080101E0,9.912368011E0
2.326042036E0,2.075773627E-1,-1.459621787E-1,9.912865639E0,9.916113074E0
2.328541255E0,2.219343036E-1,-1.124626622E-1,9.893723488E0,9.896851375E0
2.331041359E0,2.027917206E-1,-1.363908947E-1,9.898509026E0,9.901525533E0
2.333570994E0,1.884347796E-1,-1.316052526E-1,9.874580383E0,9.877254950E0
2.336071098E0,2.027917206E-1,-1.651047617E-1,9.898509026E0,9.901962684E0
2.338571150E0,2.315055877E-1,-1.651047617E-1,9.879366875E0,9.883458113E0
2.341071203E0,2.171486616E-1,-1.507478207E-1,9.908080101E0,9.911605810E0
2.343571307E0,2.123630047E-1,-1.459621787E-1,9.917651176E0,9.920998330E0
2.346071411E0,1.453639716E-1,-1.268195957E-1,9.898509026E0,9.900388620E0
2.348571463E0,1.884347796E-1,-1.411765367E-1,9.903294563E0,9.906093160E0
2.351071150E0,1.980060786E-1,-1.268195957E-1,9.859625816E0,9.862429257E0
2.353563703E0,1.645065546E-1,-1.316052526E-1,9.888937950E0,9.891181736E0
2.356056255E0,1.645065546E-1,-1.459621787E-1,9.917651176E0,9.920089325E0
2.358555942E0,1.836491376E-1,-1.507478207E-1,9.908080101E0,9.910928473E0
2.361055578E0,1.836491376E-1,-1.220339537E-1,9.893723488E0,9.896180260E0
2.363555265E0,1.597209126E-1,-1.363908947E-1,9.903294563E0,9.905521513E0
2.366055005E0,1.836491376E-1,-1.268195957E-1,9.898509026E0,9.901024752E0
2.368554692E0,1.932204217E-1,-1.316052526E-1,9.898509026E0,9.901269363E0
2.371053963E0,1.549352705E-1,-1.316052526E-1,9.908080101E0,9.910165295E0
2.373539067E0,1.932204217E-1,-1.746760458E-1,9.912865639E0,9.916287159E0
2.376038338E0,1.692921966E-1,-1.651047617E-1,9.936794281E0,9.939607639E0
2.378537609E0,1.597209126E-1,-1.651047617E-1,9.908080101E0,9.910742739E0
2.381036880E0,1.836491376E-1,-1.459621787E-1,9.912865639E0,9.915641035E0
2.383536150E0,1.549352705E-1,-1.794617027E-1,9.936794281E0,9.939622328E0
2.386035473E0,1.453639716E-1,-1.555334777E-1,9.922437668E0,9.924721186E0
2.388534744E0,1.836491376E-1,-8.853443712E-2,9.893723488E0,9.895823857E0
2.391034380E0,1.932204217E-1,-1.507478207E-1,9.912865639E0,9.915894524E0
2.393540265E0,2.075773627E-1,-1.698904037E-1,9.965508461E0,9.969117814E0
2.396046098E0,1.836491376E-1,-1.651047617E-1,9.922437668E0,9.925510358E0
2.398545734E0,1.788634956E-1,-1.651047617E-1,9.903294563E0,9.906285628E0
2.401045265E0,1.788634956E-1,-1.555334777E-1,9.917651176E0,9.920483238E0
2.403544900E0,1.788634956E-1,-1.459621787E-1,9.912865639E0,9.915553554E0
2.406044536E0,2.123630047E-1,-1.507478207E-1,9.951150894E0,9.954558105E0
2.408544171E0,2.075773627E-1,-1.363908947E-1,9.912865639E0,9.915976806E0
2.411043546E0,1.692921966E-1,-1.459621787E-1,9.960722923E0,9.963230699E0
2.413534432E0,2.267199457E-1,-1.316052526E-1,9.917651176E0,9.921115196E0
2.416033807E0,1.884347796E-1,-1.316052526E-1,9.932008743E0,9.934667850E0
2.418533182E0,1.692921966E-1,-1.220339537E-1,9.941579819E0,9.943769981E0
2.421032505E0,1.884347796E-1,-9.332008660E-2,9.946365356E0,9.948587845E0
2.423531880E0,2.315055877E-1,-1.507478207E-1,9.951150894E0,9.954984875E0
2.426031307E0,2.123630047E-1,-1.411765367E-1,9.912865639E0,9.916145120E0
2.428530682E0,2.267199457E-1,-1.172483116E-1,9.898509026E0,9.901799333E0
2.431029692E0,1.980060786E-1,-1.411765367E-1,9.908080101E0,9.911063944E0
2.433522244E0,1.692921966E-1,-1.220339537E-1,9.922437668E0,9.924632054E0
2.436014796E0,1.740778536E-1,-1.651047617E-1,9.903294563E0,9.906200376E0
2.438513807E0,2.075773627E-1,-1.268195957E-1,9.922437668E0,9.925418925E0
2.441012765E0,1.836491376E-1,-1.363908947E-1,9.922437668E0,9.925074244E0
2.443511775E0,2.267199457E-1,-1.459621787E-1,9.932008743E0,9.935668300E0
2.446010838E0,1.884347796E-1,-1.363908947E-1,9.908080101E0,9.910810332E0
2.448509848E0,1.836491376E-1,-1.220339537E-1,9.893723488E0,9.896180260E0
2.451009067E0,2.171486616E-1,-1.220339537E-1,9.955936432E0,9.959051966E0
2.453512140E0,1.788634956E-1,-1.459621787E-1,9.932008743E0,9.934691479E0
2.456015161E0,2.171486616E-1,-1.220339537E-1,9.951150894E0,9.954267926E0
2.458514380E0,2.123630047E-1,-1.698904037E-1,9.927223206E0,9.930947657E0
2.461013598E0,1.884347796E-1,-1.459621787E-1,9.927223206E0,9.930084249E0
2.463512817E0,2.075773627E-1,-1.316052526E-1,9.908080101E0,9.911128069E0
2.466012088E0,1.884347796E-1,-1.603191197E-1,9.908080101E0,9.911168507E0
2.468511307E0,2.075773627E-1,-1.363908947E-1,9.946365356E0,9.949466048E0
2.471010525E0,1.836491376E-1,-1.603191197E-1,9.893723488E0,9.896726412E0
2.473508650E0,2.123630047E-1,-1.124626622E-1,9.908080101E0,9.910993754E0
2.476007869E0,1.980060786E-1,-1.316052526E-1,9.903294563E0,9.906148069E0
2.478507088E0,2.075773627E-1,-1.124626622E-1,9.955936432E0,9.958735183E0
2.481006255E0,1.980060786E-1,-1.028913707E-1,9.941579819E0,9.944083786E0
2.483505473E0,2.027917206E-1,-1.411765367E-1,9.941579819E0,9.944650049E0
2.486004692E0,1.884347796E-1,-1.459621787E-1,9.912865639E0,9.915730825E0
2.488503859E0,2.123630047E-1,-1.363908947E-1,9.898509026E0,9.901726185E0
2.491003494E0,1.932204217E-1,-1.459621787E-1,9.869794846E0,9.872765032E0
2.493518911E0,2.123630047E-1,-1.411765367E-1,9.903294563E0,9.906577213E0
2.496018546E0,1.932204217E-1,-1.268195957E-1,9.884152412E0,9.886854214E0
2.498518182E0,1.836491376E-1,-1.316052526E-1,9.898509026E0,9.901087207E0
2.501017817E0,2.123630047E-1,-1.220339537E-1,9.922437668E0,9.925460171E0
2.503517453E0,2.075773627E-1,-1.172483116E-1,9.922437668E0,9.925301245E0
2.506017140E0,2.171486616E-1,-1.603191197E-1,9.884152412E0,9.887837209E0
2.508516775E0,1.836491376E-1,-1.316052526E-1,9.908080101E0,9.910655792E0
2.511016359E0,2.315055877E-1,-1.076770201E-1,9.922437668E0,9.925722062E0
2.513514380E0,2.267199457E-1,-1.220339537E-1,9.932008743E0,9.935345585E0
2.516012400E0,2.219343036E-1,-1.220339537E-1,9.927223206E0,9.930453549E0
2.518511984E0,2.027917206E-1,-1.172483116E-1,9.927223206E0,9.929986517E0
2.521011515E0,2.075773627E-1,-1.698904037E-1,9.955936432E0,9.959549254E0
2.523511098E0,1.980060786E-1,-1.507478207E-1,9.922437668E0,9.925557948E0
2.526010682E0,2.315055877E-1,-1.268195957E-1,9.927223206E0,9.930732028E0
2.528510213E0,2.027917206E-1,-1.555334777E-1,9.903294563E0,9.906591662E0
2.531009328E0,2.075773627E-1,-1.746760458E-1,9.893723488E0,9.897442323E0
2.533500473E0,2.219343036E-1,-1.363908947E-1,9.908080101E0,9.911503852E0
2.535991567E0,1.836491376E-1,-1.172483116E-1,9.908080101E0,9.910475542E0
2.538490682E0,2.123630047E-1,-1.603191197E-1,9.879366875E0,9.882949464E0
2.540989744E0,2.267199457E-1,-1.459621787E-1,9.917651176E0,9.921316029E0
2.543488859E0,1.836491376E-1,-1.220339537E-1,9.908080101E0,9.910533315E0
2.545987973E0,1.740778536E-1,-1.316052526E-1,9.922437668E0,9.924837143E0
2.548487088E0,2.027917206E-1,-1.746760458E-1,9.936794281E0,9.940398221E0
2.550986411E0,1.932204217E-1,-1.316052526E-1,9.936794281E0,9.939543986E0
2.553489796E0,1.788634956E-1,-1.411765367E-1,9.854840279E0,9.857474316E0
2.555993182E0,2.075773627E-1,-1.220339537E-1,9.835697174E0,9.838644193E0
2.558492505E0,1.836491376E-1,-1.411765367E-1,9.903294563E0,9.906003282E0
2.560991775E0,1.788634956E-1,-1.555334777E-1,9.869794846E0,9.872640635E0
2.563491098E0,1.884347796E-1,-1.507478207E-1,9.874580383E0,9.877528553E0
2.565990473E0,1.692921966E-1,-1.363908947E-1,9.845269203E0,9.847669166E0
2.568489796E0,1.980060786E-1,-1.555334777E-1,9.854840279E0,9.858056299E0
2.570989171E0,1.788634956E-1,-1.746760458E-1,9.778269768E0,9.781465305E0
2.573488807E0,2.027917206E-1,-1.603191197E-1,9.802198410E0,9.805606578E0
2.575988442E0,1.692921966E-1,-1.651047617E-1,9.706484795E0,9.709364886E0
2.578487817E0,2.027917206E-1,-1.363908947E-1,9.778269768E0,9.781323357E0
2.580987140E0,2.075773627E-1,-1.316052526E-1,9.864411354E0,9.867472811E0
2.583486515E0,1.836491376E-1,-1.172483116E-1,1.008993530E1,1.009228758E1
2.585985838E0,1.884347796E-1,-1.028913707E-1,1.026221848E1,1.026446405E1
2.588485161E0,1.980060786E-1,-1.268195957E-1,1.031007481E1,1.031275580E1
2.590984380E0,1.884347796E-1,-8.853443712E-2,1.022393322E1,1.022605283E1
2.593480994E0,1.597209126E-1,-1.028913707E-1,1.008993530E1,1.009172393E1
2.595977609E0,1.884347796E-1,-6.939185411E-2,9.898509026E0,9.900545633E0
2.598476828E0,1.932204217E-1,-5.503492057E-2,9.806983948E0,9.809041601E0
2.600975994E0,1.836491376E-1,-9.810572863E-2,9.739984512E0,9.742209710E0
2.603475213E0,2.027917206E-1,-9.810572863E-2,9.711270332E0,9.713882884E0
2.605974432E0,2.410768867E-1,-1.363908947E-1,9.787840843E0,9.791759235E0
2.608473598E0,2.362912297E-1,-1.555334777E-1,9.874580383E0,9.878631583E0
2.610973442E0,2.267199457E-1,-1.698904037E-1,9.984650612E0,9.988669207E0
2.613484744E0,2.171486616E-1,-1.316052526E-1,1.002293587E1,1.002615165E1
2.615996046E0,2.075773627E-1,-1.076770201E-1,1.004207802E1,1.004480033E1
2.618495890E0,2.410768867E-1,-1.220339537E-1,1.004207802E1,1.004571258E1
2.620995682E0,1.788634956E-1,-1.603191197E-1,9.999007225E0,1.000189181E1
2.623495525E0,1.310070455E-1,-1.507478207E-1,9.917651176E0,9.919661920E0
2.625995421E0,1.740778536E-1,-1.220339537E-1,9.859625816E0,9.861917492E0
2.628495265E0,1.549352705E-1,-1.555334777E-1,9.869794846E0,9.872236114E0
2.630994588E0,1.932204217E-1,-1.603191197E-1,9.884152412E0,9.887340657E0
2.633485005E0,1.836491376E-1,-1.698904037E-1,9.912865639E0,9.916022132E0
2.635975421E0,2.315055877E-1,-1.794617027E-1,9.932008743E0,9.936327240E0
2.638474744E0,1.932204217E-1,-1.363908947E-1,9.946365356E0,9.949176871E0
2.640974067E0,2.171486616E-1,-1.698904037E-1,9.888937950E0,9.892780705E0
2.643473390E0,2.219343036E-1,-1.507478207E-1,9.903294563E0,9.906928028E0
2.645972713E0,2.171486616E-1,-1.316052526E-1,9.936794281E0,9.940037931E0
2.648472088E0,2.027917206E-1,-1.172483116E-1,9.908080101E0,9.910848750E0
2.650970473E0,1.884347796E-1,-5.982056633E-2,9.888937950E0,9.890914010E0
2.653452140E0,2.027917206E-1,-9.810572863E-2,9.888937950E0,9.891503576E0
2.655933755E0,1.884347796E-1,-1.124626622E-1,9.898509026E0,9.900941190E0
2.658432140E0,1.549352705E-1,-8.853443712E-2,9.932008743E0,9.933611678E0
2.660930473E0,2.075773627E-1,-1.028913707E-1,9.975079536E0,9.977769628E0
2.663428859E0,2.267199457E-1,-1.555334777E-1,9.917651176E0,9.921461458E0
2.665927244E0,2.171486616E-1,-1.220339537E-1,9.932008743E0,9.935131781E0
2.668425630E0,1.692921966E-1,-1.507478207E-1,9.946365356E0,9.948948113E0
2.670925109E0,1.740778536E-1,-1.746760458E-1,9.874580383E0,9.877659266E0
2.673444015E0,1.980060786E-1,-1.459621787E-1,9.816555023E0,9.819636647E0
2.675962921E0,1.405783296E-1,-1.651047617E-1,9.859625816E0,9.862010094E0
2.678462400E0,1.597209126E-1,-1.220339537E-1,9.884152412E0,9.886196031E0
2.680961828E0,1.549352705E-1,-1.363908947E-1,9.869794846E0,9.871953085E0
2.683461307E0,2.123630047E-1,-1.268195957E-1,9.908080101E0,9.911167063E0
2.685960838E0,1.788634956E-1,-1.411765367E-1,9.888937950E0,9.891562907E0
2.688460317E0,1.980060786E-1,-1.028913707E-1,9.884152412E0,9.886670924E0
2.690959796E0,1.788634956E-1,-1.220339537E-1,9.927223206E0,9.929584332E0
2.693458807E0,1.980060786E-1,-1.459621787E-1,9.955936432E0,9.958974927E0
2.695957765E0,1.597209126E-1,-1.411765367E-1,9.994221687E0,9.996494822E0
2.698457244E0,2.027917206E-1,-1.124626622E-1,1.001815033E1,1.002083372E1
2.700956619E0,1.597209126E-1,-1.507478207E-1,9.955936432E0,9.958358595E0
2.703456098E0,2.075773627E-1,-1.220339537E-1,9.994221687E0,9.997121975E0
2.705955578E0,1.692921966E-1,-8.853443712E-2,9.955936432E0,9.957769250E0
2.708455005E0,1.597209126E-1,-7.896314561E-2,9.806983948E0,9.808602352E0
2.710954848E0,2.123630047E-1,-7.417750359E-2,9.802198410E0,9.804779142E0
2.713468494E0,2.075773627E-1,-1.124626622E-1,9.912865639E0,9.915676547E0
2.715968338E0,1.884347796E-1,-1.268195957E-1,1.001815033E1,1.002072487E1
2.718468182E0,2.315055877E-1,-1.268195957E-1,9.960722923E0,9.964219949E0
2.720967973E0,2.123630047E-1,-1.028913707E-1,9.830911636E0,9.833743350E0
2.723467817E0,2.027917206E-1,-1.651047617E-1,9.840482712E0,9.843956728E0
2.725967713E0,1.836491376E-1,-1.363908947E-1,9.888937950E0,9.891583456E0
2.728467557E0,1.980060786E-1,-1.363908947E-1,9.927223206E0,9.930134413E0
2.730966203E0,1.932204217E-1,-7.896314561E-2,9.946365356E0,9.948555328E0
2.733443078E0,1.615155302E-2,1.555334777E-1,9.888937950E0,9.890174180E0
2.735919953E0,1.118644550E-1,-1.076770201E-1,9.548559189E0,9.549821495E0
2.738418598E0,1.836491376E-1,5.024927482E-2,9.922437668E0,9.924264268E0
2.740917192E0,1.070788130E-1,-1.555334777E-1,1.053978539E1,1.054147677E1
2.743415838E0,2.219343036E-1,-1.651047617E-1,9.922437668E0,9.926292545E0
2.745914536E0,1.549352705E-1,3.110669367E-2,9.424132347E0,9.425457180E0
2.748413182E0,2.841476798E-1,-2.895315289E-1,9.946365356E0,9.954634710E0
2.750933025E0,1.932204217E-1,-1.076770201E-1,1.030528927E1,1.030766294E1
2.753452869E0,3.032902777E-1,-1.651047617E-1,9.922437668E0,9.928444684E0
2.755972661E0,3.176472187E-1,-3.038884699E-1,9.763913155E0,9.773804175E0
2.758472973E0,2.410768867E-1,-2.416750938E-1,9.816555023E0,9.822488353E0
2.760973234E0,2.745763958E-1,-2.273181528E-1,9.908080101E0,9.914490256E0
2.763473546E0,2.171486616E-1,-2.895315289E-1,9.979865074E0,9.986425234E0
2.765973911E0,2.027917206E-1,-2.560320199E-1,9.975079536E0,9.980425273E0
2.768474223E0,1.740778536E-1,-1.651047617E-1,9.854840279E0,9.857760374E0
2.770973755E0,7.357929647E-2,-1.746760458E-1,9.869794846E0,9.871614657E0
2.773459848E0,1.501496136E-1,-1.698904037E-1,9.898509026E0,9.901105422E0
2.775945890E0,1.166501045E-1,-1.316052526E-1,9.941579819E0,9.943135143E0
2.778445421E0,1.070788130E-1,-1.459621787E-1,9.927223206E0,9.928873622E0
2.780944900E0,1.836491376E-1,-1.794617027E-1,9.859625816E0,9.862968861E0
2.783444432E0,2.267199457E-1,-1.411765367E-1,9.869794846E0,9.873407874E0
2.785944015E0,2.458625287E-1,-2.368894368E-1,1.000857925E1,1.001440081E1
2.788443546E0,2.650051117E-1,-1.603191197E-1,9.888937950E0,9.893787127E0
2.790943234E0,2.697907388E-1,-1.746760458E-1,9.797411919E0,9.802682238E0
2.793445057E0,2.793620527E-1,-1.890329868E-1,9.917651176E0,9.923385586E0
2.795946880E0,2.889333367E-1,-9.332008660E-2,9.908080101E0,9.912731329E0
2.798446567E0,2.458625287E-1,-4.546362907E-2,9.912865639E0,9.916018379E0
2.800946203E0,2.315055877E-1,-9.810572863E-2,9.941579819E0,9.944758864E0
2.803445890E0,1.645065546E-1,-9.810572863E-2,9.908080101E0,9.909931303E0
2.805945578E0,2.267199457E-1,-2.153540403E-2,9.888937950E0,9.891560013E0
2.808445213E0,1.597209126E-1,-5.503492057E-2,9.951150894E0,9.952584776E0
2.810944380E0,2.123630047E-1,-1.124626622E-1,1.000379372E1,1.000667950E1
2.813434328E0,2.027917206E-1,-1.316052526E-1,9.984650612E0,9.987576897E0
2.815924223E0,2.075773627E-1,-1.172483116E-1,9.936794281E0,9.939653722E0
2.818423390E0,2.171486616E-1,-1.746760458E-1,9.888937950E0,9.892864047E0
2.820922453E0,1.692921966E-1,-1.363908947E-1,9.854840279E0,9.857237911E0
2.823421619E0,1.501496136E-1,-2.273181528E-1,9.955936432E0,9.959663081E0
2.825920786E0,1.405783296E-1,-1.411765367E-1,9.908080101E0,9.910082965E0
2.828419900E0,1.501496136E-1,-1.028913707E-1,9.874580383E0,9.876257858E0
2.830918442E0,1.645065546E-1,-1.746760458E-1,9.840482712E0,9.843407648E0
2.833406359E0,1.453639716E-1,-1.316052526E-1,9.826126099E0,9.828082455E0
2.835894223E0,1.692921966E-1,-1.555334777E-1,9.903294563E0,9.905962534E0
2.838392765E0,1.788634956E-1,-1.507478207E-1,9.960722923E0,9.963469185E0
2.840891255E0,1.501496136E-1,-1.363908947E-1,9.936794281E0,9.938864521E0
2.843389796E0,2.027917206E-1,-1.698904037E-1,9.859625816E0,9.863174361E0
2.845888338E0,1.788634956E-1,-1.507478207E-1,9.917651176E0,9.920409362E0
2.848386880E0,2.315055877E-1,-1.651047617E-1,9.955936432E0,9.959996218E0
2.850906984E0,2.075773627E-1,-1.555334777E-1,9.893723488E0,9.897122990E0
2.853427088E0,2.075773627E-1,-1.411765367E-1,9.893723488E0,9.896907781E0
2.855947192E0,2.219343036E-1,-5.982056633E-2,9.965508461E0,9.968158918E0
2.858447400E0,2.267199457E-1,-1.028913707E-1,9.941579819E0,9.944696972E0
2.860947557E0,1.884347796E-1,-1.124626622E-1,9.830911636E0,9.833360520E0
2.863447765E0,2.075773627E-1,-1.459621787E-1,9.874580383E0,9.877840405E0
2.865948025E0,2.171486616E-1,-1.028913707E-1,9.989436150E0,9.992325793E0
2.868448234E0,2.267199457E-1,-1.316052526E-1,9.999007225E0,1.000244307E1
2.870947244E0,2.219343036E-1,-1.459621787E-1,9.811769485E0,9.815364498E0
2.873425213E0,2.458625287E-1,-1.028913707E-1,9.787840843E0,9.791468909E0
2.875903130E0,2.219343036E-1,-1.411765367E-1,9.912865639E0,9.916354714E0
2.878402140E0,2.219343036E-1,-1.459621787E-1,9.994221687E0,9.997751094E0
2.880901098E0,2.123630047E-1,-1.698904037E-1,9.965508461E0,9.969218609E0
2.883400109E0,1.597209126E-1,-1.555334777E-1,9.903294563E0,9.905803584E0
2.885899171E0,1.980060786E-1,-1.698904037E-1,9.864411354E0,9.867860990E0
2.888398182E0,1.836491376E-1,-1.316052526E-1,9.826126099E0,9.828723267E0
2.890897400E0,1.836491376E-1,-1.220339537E-1,9.869794846E0,9.872257573E0
2.893399588E0,2.123630047E-1,-1.028913707E-1,1.000857925E1,1.001136072E1
2.895901775E0,1.980060786E-1,-1.316052526E-1,9.999007225E0,1.000183342E1
2.898400994E0,2.171486616E-1,-1.411765367E-1,9.946365356E0,9.949737090E0
2.900900109E0,1.788634956E-1,-1.316052526E-1,9.826126099E0,9.828635012E0
2.903399328E0,1.932204217E-1,-1.411765367E-1,9.778269768E0,9.781197503E0
2.905898546E0,1.980060786E-1,-1.268195957E-1,9.917651176E0,9.920438220E0
2.908397713E0,1.836491376E-1,-1.268195957E-1,1.002293587E1,1.002542037E1
2.910897036E0,2.027917206E-1,-1.028913707E-1,9.984650612E0,9.987239807E0
2.913398546E0,2.171486616E-1,-8.374879509E-2,9.879366875E0,9.882107935E0
2.915900005E0,1.932204217E-1,-9.332008660E-2,9.941579819E0,9.943895216E0
2.918399328E0,2.027917206E-1,-1.028913707E-1,9.941579819E0,9.944180228E0
2.920898546E0,1.645065546E-1,-1.028913707E-1,9.951150894E0,9.953042407E0
2.923397869E0,1.788634956E-1,-6.939185411E-2,9.879366875E0,9.881229540E0
2.925897192E0,2.458625287E-1,-1.316052526E-1,9.879366875E0,9.883301987E0
2.928396515E0,1.405783296E-1,-1.220339537E-1,9.888937950E0,9.890689983E0
2.930896098E0,1.884347796E-1,-1.794617027E-1,9.888937950E0,9.892361091E0
2.933400057E0,2.123630047E-1,-1.794617027E-1,9.955936432E0,9.959818010E0
2.935904015E0,1.980060786E-1,-1.986042857E-1,9.908080101E0,9.912048293E0
2.938403598E0,1.884347796E-1,-1.986042857E-1,9.835697174E0,9.839506605E0
2.940903078E0,1.740778536E-1,-1.220339537E-1,9.893723488E0,9.896007268E0
2.943402661E0,1.645065546E-1,-1.507478207E-1,9.936794281E0,9.939299165E0
2.945902244E0,1.692921966E-1,-1.268195957E-1,9.927223206E0,9.929476503E0
2.948401775E0,1.597209126E-1,-9.332008660E-2,9.884152412E0,9.885883285E0
2.950901046E0,1.788634956E-1,-1.220339537E-1,9.884152412E0,9.886523825E0
2.953395473E0,1.836491376E-1,-1.316052526E-1,9.830911636E0,9.833507541E0
2.955889848E0,1.597209126E-1,-1.172483116E-1,9.898509026E0,9.900491850E0
2.958389119E0,2.075773627E-1,-1.028913707E-1,9.936794281E0,9.939494735E0
2.960888390E0,2.267199457E-1,-1.363908947E-1,9.965508461E0,9.969020177E0
2.963387661E0,1.980060786E-1,-1.220339537E-1,9.908080101E0,9.910809754E0
2.965886984E0,1.932204217E-1,-7.417750359E-2,9.869794846E0,9.871964684E0
2.968386255E0,2.315055877E-1,-9.810572863E-2,9.874580383E0,9.877780992E0
2.970885005E0,2.027917206E-1,-1.555334777E-1,9.917651176E0,9.920943504E0
2.973374171E0,1.740778536E-1,-1.220339537E-1,9.989436150E0,9.991698052E0
2.975863286E0,1.549352705E-1,-7.417750359E-2,9.984650612E0,9.986128133E0
2.978362036E0,1.692921966E-1,-1.220339537E-1,9.908080101E0,9.910277666E0
2.980860682E0,1.645065546E-1,-9.810572863E-2,9.864411354E0,9.866270750E0
2.983359432E0,1.549352705E-1,-1.316052526E-1,9.874580383E0,9.876672650E0
2.985858182E0,1.405783296E-1,-1.459621787E-1,1.002772141E1,1.002976888E1
2.988356880E0,1.501496136E-1,-1.076770201E-1,9.922437668E0,9.924157824E0
2.990856775E0,2.027917206E-1,-1.555334777E-1,9.917651176E0,9.920943504E0
2.993376619E0,1.740778536E-1,-1.411765367E-1,9.912865639E0,9.915399089E0
2.995896411E0,1.692921966E-1,-1.411765367E-1,9.912865639E0,9.915316225E0
2.998396307E0,1.884347796E-1,-1.794617027E-1,9.893723488E0,9.897144973E0
3.000896098E0,1.980060786E-1,-8.853443712E-2,9.903294563E0,9.905669486E0
3.003395994E0,1.980060786E-1,-1.698904037E-1,9.917651176E0,9.921082301E0
3.005895890E0,2.027917206E-1,-1.124626622E-1,9.917651176E0,9.920361747E0
3.008395734E0,1.884347796E-1,-1.076770201E-1,9.912865639E0,9.915241156E0
3.010895265E0,1.884347796E-1,-1.268195957E-1,9.879366875E0,9.881977571E0
3.013388703E0,1.836491376E-1,-1.316052526E-1,9.864411354E0,9.866998445E0
3.015882140E0,1.884347796E-1,-1.172483116E-1,9.879366875E0,9.881859373E0
3.018381671E0,2.027917206E-1,-1.363908947E-1,9.912865639E0,9.915877779E0
3.020881098E0,1.692921966E-1,-1.507478207E-1,9.960722923E0,9.963301958E0
3.023380630E0,2.315055877E-1,-1.316052526E-1,9.936794281E0,9.940361933E0
3.025880161E0,2.123630047E-1,-1.363908947E-1,9.898509026E0,9.901726185E0
3.028379692E0,2.219343036E-1,-1.507478207E-1,9.941579819E0,9.945199296E0
3.030878755E0,1.884347796E-1,-9.810572863E-2,9.884152412E0,9.886435218E0
3.033369380E0,2.171486616E-1,-1.220339537E-1,9.960722923E0,9.963836961E0
3.035860005E0,2.075773627E-1,-1.076770201E-1,9.936794281E0,9.939545426E0
3.038359067E0,2.171486616E-1,-1.698904037E-1,9.864411354E0,9.868263659E0
3.040858078E0,2.123630047E-1,-1.124626622E-1,9.879366875E0,9.882288993E0
3.043357140E0,2.171486616E-1,-1.507478207E-1,9.960722923E0,9.964230005E0
3.045856150E0,2.123630047E-1,-1.411765367E-1,9.903294563E0,9.906577213E0
3.048355161E0,2.267199457E-1,-1.316052526E-1,9.854840279E0,9.858326369E0
3.050854640E0,2.123630047E-1,-1.555334777E-1,9.884152412E0,9.887656832E0
3.053362296E0,2.267199457E-1,-1.555334777E-1,9.932008743E0,9.935813518E0
3.055869900E0,1.932204217E-1,-1.555334777E-1,9.898509026E0,9.901616319E0
3.058369380E0,1.692921966E-1,-1.555334777E-1,9.922437668E0,9.925100492E0
3.060868859E0,2.123630047E-1,-1.698904037E-1,9.927223206E0,9.930947657E0
3.063368338E0,1.932204217E-1,-1.603191197E-1,9.951150894E0,9.954317680E0
3.065867869E0,1.453639716E-1,-1.555334777E-1,9.912865639E0,9.915151361E0
3.068367400E0,1.692921966E-1,-1.268195957E-1,9.893723488E0,9.895984413E0
3.070866932E0,1.501496136E-1,-1.316052526E-1,9.884152412E0,9.886168811E0
3.073367348E0,1.884347796E-1,-1.746760458E-1,9.936794281E0,9.940115692E0
3.075867765E0,1.740778536E-1,-1.124626622E-1,9.946365356E0,9.948524250E0
3.078367296E0,2.075773627E-1,-1.459621787E-1,9.845269203E0,9.848538927E0
3.080866828E0,2.219343036E-1,-1.411765367E-1,9.816555023E0,9.820078318E0
3.083366359E0,1.645065546E-1,-1.411765367E-1,1.000857925E1,1.001092663E1
3.085865942E0,2.171486616E-1,-1.555334777E-1,9.941579819E0,9.945167344E0
3.088365473E0,1.932204217E-1,-1.363908947E-1,9.811769485E0,9.814619557E0
3.090865838E0,1.740778536E-1,-1.268195957E-1,9.840482712E0,9.842839342E0
3.093380005E0,1.932204217E-1,-1.220339537E-1,9.941579819E0,9.944206138E0
3.095894171E0,1.645065546E-1,-1.316052526E-1,9.955936432E0,9.958165121E0
3.098394536E0,1.836491376E-1,-1.507478207E-1,9.908080101E0,9.910928473E0
3.100894796E0,2.123630047E-1,-1.220339537E-1,9.912865639E0,9.915891059E0
3.103395161E0,2.075773627E-1,-1.698904037E-1,9.859625816E0,9.863273916E0
3.105895525E0,1.836491376E-1,-1.459621787E-1,9.936794281E0,9.939562996E0
3.108395838E0,2.027917206E-1,-1.698904037E-1,9.946365356E0,9.949882966E0
3.110895942E0,2.123630047E-1,-1.459621787E-1,9.917651176E0,9.920998330E0
3.113391828E0,2.171486616E-1,-1.459621787E-1,9.888937950E0,9.892398712E0
3.115887661E0,2.315055877E-1,-9.332008660E-2,9.946365356E0,9.949496835E0
3.118387765E0,2.171486616E-1,-1.411765367E-1,9.946365356E0,9.949737090E0
3.120887817E0,1.932204217E-1,-1.411765367E-1,9.941579819E0,9.944459474E0
3.123387921E0,1.836491376E-1,-1.363908947E-1,9.917651176E0,9.920289025E0
3.125888025E0,2.362912297E-1,-1.268195957E-1,9.908080101E0,9.911708634E0
3.128388078E0,1.932204217E-1,-1.124626622E-1,9.922437668E0,9.924955982E0
3.130887400E0,1.932204217E-1,-1.411765367E-1,9.893723488E0,9.896617068E0
3.133373234E0,1.597209126E-1,-1.411765367E-1,9.932008743E0,9.934296113E0
3.135859015E0,1.932204217E-1,-1.172483116E-1,9.912865639E0,9.915441819E0
3.138358338E0,2.219343036E-1,-1.698904037E-1,9.903294563E0,9.907237798E0
3.140857609E0,2.171486616E-1,-1.459621787E-1,9.941579819E0,9.945022262E0
3.143356932E0,1.836491376E-1,-1.363908947E-1,9.936794281E0,9.939427049E0
3.145856255E0,1.740778536E-1,-1.459621787E-1,9.941579819E0,9.944175046E0
3.148355578E0,1.740778536E-1,-1.316052526E-1,9.932008743E0,9.934405907E0
3.150854953E0,2.075773627E-1,-1.507478207E-1,9.888937950E0,9.892265011E0
3.153355682E0,1.740778536E-1,-1.220339537E-1,9.884152412E0,9.886438403E0
3.155856359E0,1.453639716E-1,-1.172483116E-1,9.955936432E0,9.957687889E0
3.158355734E0,1.740778536E-1,-1.363908947E-1,9.951150894E0,9.953607873E0
3.160855057E0,1.932204217E-1,-1.651047617E-1,9.927223206E0,9.930476035E0
3.163354432E0,1.597209126E-1,-1.459621787E-1,9.869794846E0,9.872166227E0
3.165853859E0,1.740778536E-1,-1.651047617E-1,9.917651176E0,9.920552784E0
3.168353286E0,1.980060786E-1,-1.507478207E-1,9.936794281E0,9.939910055E0
3.170851463E0,2.027917206E-1,-1.268195957E-1,9.927223206E0,9.930104142E0
3.173328130E0,1.836491376E-1,-1.316052526E-1,9.893723488E0,9.896302916E0
3.175804744E0,1.501496136E-1,-1.076770201E-1,9.859625816E0,9.861356929E0
3.178302921E0,1.932204217E-1,-1.507478207E-1,9.888937950E0,9.891974162E0
3.180800994E0,2.027917206E-1,-1.507478207E-1,9.927223206E0,9.930438558E0
3.183299171E0,2.362912297E-1,-1.076770201E-1,9.936794281E0,9.940186541E0
3.185797348E0,2.123630047E-1,-1.316052526E-1,9.903294563E0,9.906445437E0
3.188295473E0,2.267199457E-1,-1.124626622E-1,9.912865639E0,9.916095752E0
3.190813078E0,2.075773627E-1,-1.459621787E-1,9.922437668E0,9.925681971E0
3.193330734E0,1.740778536E-1,-1.459621787E-1,9.917651176E0,9.920252664E0
3.195848338E0,1.980060786E-1,-1.411765367E-1,9.903294563E0,9.906279848E0
3.198348025E0,1.932204217E-1,-1.363908947E-1,9.922437668E0,9.925255960E0
3.200847661E0,1.884347796E-1,-1.603191197E-1,9.932008743E0,9.935089711E0
3.203347348E0,2.075773627E-1,-1.268195957E-1,9.936794281E0,9.939771232E0
3.205847036E0,1.645065546E-1,-1.172483116E-1,9.903294563E0,9.905354753E0
3.208346723E0,2.075773627E-1,-1.316052526E-1,9.917651176E0,9.920696203E0
3.210846359E0,1.932204217E-1,-1.363908947E-1,9.908080101E0,9.910902476E0
3.213344744E0,1.788634956E-1,-1.076770201E-1,9.912865639E0,9.915063876E0
3.215843130E0,1.836491376E-1,-1.651047617E-1,9.898509026E0,9.901589141E0
3.218342765E0,1.836491376E-1,-1.172483116E-1,9.898509026E0,9.900906782E0
3.220842348E0,1.692921966E-1,-1.220339537E-1,9.884152412E0,9.886355296E0
3.223341984E0,2.315055877E-1,-1.220339537E-1,9.903294563E0,9.906751755E0
3.225841619E0,2.171486616E-1,-1.363908947E-1,9.908080101E0,9.911397848E0
3.228341203E0,2.123630047E-1,-1.363908947E-1,9.908080101E0,9.911294154E0
3.230839588E0,1.645065546E-1,-1.411765367E-1,9.879366875E0,9.881744940E0
3.233316411E0,1.980060786E-1,-1.411765367E-1,9.898509026E0,9.901495753E0
3.235793234E0,1.932204217E-1,-1.363908947E-1,9.903294563E0,9.906118302E0
3.238291619E0,1.597209126E-1,-1.172483116E-1,9.893723488E0,9.895707271E0
3.240789953E0,1.836491376E-1,-1.220339537E-1,9.927223206E0,9.929671690E0
3.243288338E0,1.788634956E-1,-1.268195957E-1,9.922437668E0,9.924859930E0
3.245786723E0,1.932204217E-1,-1.459621787E-1,9.884152412E0,9.887118286E0
3.248285109E0,1.980060786E-1,-1.411765367E-1,9.927223206E0,9.930201297E0
3.250784171E0,1.980060786E-1,-1.459621787E-1,9.912865639E0,9.915917332E0
3.253295473E0,2.362912297E-1,-1.363908947E-1,9.908080101E0,9.911835718E0
3.255806723E0,1.932204217E-1,-1.363908947E-1,9.908080101E0,9.910902476E0
3.258305786E0,1.836491376E-1,-1.124626622E-1,9.917651176E0,9.919988897E0
3.260804796E0,2.171486616E-1,-1.124626622E-1,9.932008743E0,9.935018826E0
3.263303859E0,1.932204217E-1,-1.268195957E-1,9.936794281E0,9.939481773E0
3.265802973E0,1.932204217E-1,-1.124626622E-1,9.893723488E0,9.896249109E0
3.268302036E0,2.171486616E-1,-1.124626622E-1,9.912865639E0,9.915881532E0
3.270801203E0,1.932204217E-1,-1.124626622E-1,9.946365356E0,9.948877614E0
3.273302036E0,2.027917206E-1,-1.651047617E-1,9.965508461E0,9.968938908E0
3.275802869E0,1.884347796E-1,-1.411765367E-1,9.884152412E0,9.886956427E0
3.278302036E0,2.171486616E-1,-1.603191197E-1,9.936794281E0,9.940459564E0
3.280801203E0,1.884347796E-1,-1.603191197E-1,9.936794281E0,9.939873765E0
3.283300369E0,2.027917206E-1,-1.316052526E-1,9.932008743E0,9.934950533E0
3.285799536E0,1.740778536E-1,-1.459621787E-1,9.917651176E0,9.920252664E0
3.288298703E0,1.980060786E-1,-1.268195957E-1,9.893723488E0,9.896517270E0
3.290798234E0,2.075773627E-1,-1.363908947E-1,9.874580383E0,9.877703609E0
3.293304067E0,1.884347796E-1,-1.651047617E-1,9.888937950E0,9.892111050E0
3.295809848E0,2.171486616E-1,-1.363908947E-1,9.893723488E0,9.897046048E0
3.298309380E0,1.836491376E-1,-1.172483116E-1,9.908080101E0,9.910475542E0
3.300808859E0,2.027917206E-1,-9.810572863E-2,9.927223206E0,9.929778940E0
3.303308390E0,2.123630047E-1,-1.028913707E-1,9.912865639E0,9.915673948E0
3.305807921E0,2.315055877E-1,-1.363908947E-1,9.908080101E0,9.911722787E0
3.308307400E0,1.980060786E-1,-1.555334777E-1,9.912865639E0,9.916062840E0
3.310807192E0,2.171486616E-1,-1.651047617E-1,9.960722923E0,9.964457551E0
3.313311880E0,2.267199457E-1,-8.853443712E-2,9.917651176E0,9.920637335E0
3.315816515E0,2.075773627E-1,-1.124626622E-1,9.922437668E0,9.925245865E0
3.318316307E0,2.027917206E-1,-1.507478207E-1,9.965508461E0,9.968711465E0
3.320816046E0,1.645065546E-1,-1.316052526E-1,9.927223206E0,9.929458340E0
3.323315838E0,1.740778536E-1,-1.220339537E-1,9.893723488E0,9.896007268E0
3.325815682E0,1.645065546E-1,-1.316052526E-1,9.912865639E0,9.915104010E0
3.328315473E0,1.836491376E-1,-1.316052526E-1,9.927223206E0,9.929793931E0
3.330815369E0,1.453639716E-1,-9.332008660E-2,9.917651176E0,9.919155417E0
3.333317140E0,1.597209126E-1,-1.172483116E-1,9.884152412E0,9.886138116E0
3.335818859E0,1.501496136E-1,-1.363908947E-1,9.936794281E0,9.938864521E0
3.338318755E0,1.549352705E-1,-1.555334777E-1,9.917651176E0,9.920080668E0
3.340818598E0,1.836491376E-1,-1.746760458E-1,9.922437668E0,9.925674184E0
3.343318494E0,1.692921966E-1,-1.363908947E-1,9.912865639E0,9.915249240E0
3.345818442E0,1.405783296E-1,-1.411765367E-1,9.908080101E0,9.910082965E0
3.348318338E0,1.836491376E-1,-1.555334777E-1,9.984650612E0,9.987550526E0
3.350818025E0,1.788634956E-1,-1.411765367E-1,9.922437668E0,9.925053765E0
3.353313650E0,1.405783296E-1,-8.374879509E-2,9.955936432E0,9.957281073E0
3.355809223E0,1.788634956E-1,-1.124626622E-1,9.951150894E0,9.953393598E0
3.358308911E0,1.740778536E-1,-1.363908947E-1,9.903294563E0,9.905763412E0
3.360808494E0,2.027917206E-1,-1.459621787E-1,9.922437668E0,9.925583041E0
3.363308182E0,1.980060786E-1,-1.124626622E-1,9.912865639E0,9.915480797E0
3.365807869E0,2.171486616E-1,-1.268195957E-1,9.903294563E0,9.906486762E0
3.368307505E0,2.171486616E-1,-1.363908947E-1,9.884152412E0,9.887478189E0
3.370805994E0,2.027917206E-1,-1.124626622E-1,9.888937950E0,9.891656389E0
3.373284275E0,2.171486616E-1,-1.507478207E-1,9.879366875E0,9.882902827E0
3.375762557E0,2.219343036E-1,-1.363908947E-1,9.854840279E0,9.858282519E0
3.378261046E0,2.075773627E-1,-1.220339537E-1,9.903294563E0,9.906221472E0
3.380759484E0,2.315055877E-1,-1.316052526E-1,9.888937950E0,9.892522861E0
3.383257973E0,2.027917206E-1,-1.076770201E-1,9.893723488E0,9.896387385E0
3.385756515E0,2.219343036E-1,-1.220339537E-1,9.912865639E0,9.916100660E0
3.388255057E0,1.980060786E-1,-1.411765367E-1,9.912865639E0,9.915848042E0
3.390771880E0,1.980060786E-1,-1.124626622E-1,9.922437668E0,9.925050304E0
3.393288703E0,2.267199457E-1,-1.316052526E-1,9.951150894E0,9.954603257E0
3.395805525E0,2.027917206E-1,-1.316052526E-1,9.960722923E0,9.963656235E0
3.398305473E0,2.267199457E-1,-1.268195957E-1,9.932008743E0,9.935405519E0
3.400805421E0,2.267199457E-1,-1.459621787E-1,9.884152412E0,9.887829681E0
3.403305317E0,1.788634956E-1,-1.124626622E-1,9.854840279E0,9.857104895E0
3.405805265E0,1.788634956E-1,-1.363908947E-1,9.893723488E0,9.896280063E0
3.408305213E0,1.645065546E-1,-1.220339537E-1,9.927223206E0,9.929336094E0
3.410805005E0,2.075773627E-1,-1.172483116E-1,9.908080101E0,9.910947826E0
3.413301880E0,1.980060786E-1,-1.220339537E-1,9.903294563E0,9.906025535E0
3.415798703E0,1.501496136E-1,-1.363908947E-1,9.922437668E0,9.924510903E0
3.418298494E0,1.740778536E-1,-1.363908947E-1,9.936794281E0,9.939254809E0
3.420798234E0,1.932204217E-1,-1.172483116E-1,9.898509026E0,9.901088941E0
3.423298025E0,1.836491376E-1,-1.411765367E-1,9.903294563E0,9.906003282E0
3.425797817E0,1.836491376E-1,-1.268195957E-1,9.884152412E0,9.886671792E0
3.428297557E0,2.171486616E-1,-1.603191197E-1,9.903294563E0,9.906972240E0
3.430796463E0,1.884347796E-1,-1.459621787E-1,9.932008743E0,9.934868409E0
3.433279900E0,1.836491376E-1,-1.363908947E-1,9.874580383E0,9.877229735E0
3.435763286E0,1.836491376E-1,-1.363908947E-1,9.903294563E0,9.905936235E0
3.438262192E0,1.692921966E-1,-1.555334777E-1,9.908080101E0,9.910746783E0
3.440761046E0,1.836491376E-1,-1.124626622E-1,9.936794281E0,9.939127499E0
3.443259953E0,1.740778536E-1,-1.459621787E-1,9.893723488E0,9.896331265E0
3.445758859E0,1.884347796E-1,-1.220339537E-1,9.941579819E0,9.944114302E0
3.448257765E0,1.788634956E-1,-1.507478207E-1,9.908080101E0,9.910840950E0
3.450757661E0,1.884347796E-1,-1.028913707E-1,9.946365356E0,9.948682230E0
3.453274848E0,2.027917206E-1,-1.172483116E-1,9.884152412E0,9.886927761E0
3.455792036E0,1.645065546E-1,-1.316052526E-1,9.908080101E0,9.910319553E0
3.458291932E0,2.171486616E-1,-1.268195957E-1,9.893723488E0,9.896918773E0
3.460791723E0,1.932204217E-1,-1.268195957E-1,9.893723488E0,9.896422677E0
3.463291619E0,1.980060786E-1,-1.076770201E-1,9.903294563E0,9.905859072E0
3.465791515E0,1.740778536E-1,-1.411765367E-1,9.960722923E0,9.963244204E0
3.468291411E0,2.123630047E-1,-1.124626622E-1,9.903294563E0,9.906209623E0
3.470790734E0,2.458625287E-1,-1.411765367E-1,9.869794846E0,9.873865985E0
3.473280421E0,1.884347796E-1,-1.363908947E-1,9.927223206E0,9.929948173E0
3.475770057E0,2.075773627E-1,-1.603191197E-1,9.927223206E0,9.930687346E0
3.478269380E0,1.932204217E-1,-1.459621787E-1,9.912865639E0,9.915822924E0
3.480768650E0,1.836491376E-1,-1.698904037E-1,9.932008743E0,9.935159155E0
3.483267973E0,2.123630047E-1,-1.316052526E-1,9.893723488E0,9.896877409E0
3.485767296E0,1.740778536E-1,-1.507478207E-1,9.898509026E0,9.901187249E0
3.488266619E0,1.980060786E-1,-1.076770201E-1,9.936794281E0,9.939350146E0
3.490765942E0,2.075773627E-1,-1.316052526E-1,9.898509026E0,9.901559939E0
3.493265838E0,2.027917206E-1,-1.555334777E-1,9.879366875E0,9.882671956E0
3.495765161E0,2.171486616E-1,-1.507478207E-1,9.850054741E0,9.853601212E0
3.498264484E0,1.884347796E-1,-1.746760458E-1,9.888937950E0,9.892275429E0
3.500763807E0,2.075773627E-1,-1.411765367E-1,9.864411354E0,9.867605107E0
3.503263130E0,1.932204217E-1,-1.459621787E-1,9.932008743E0,9.934960330E0
3.505762505E0,1.884347796E-1,-1.268195957E-1,9.917651176E0,9.920251798E0
3.508261828E0,1.932204217E-1,-1.411765367E-1,9.922437668E0,9.925322877E0
3.510761150E0,2.075773627E-1,-1.124626622E-1,9.936794281E0,9.939598422E0
3.513260473E0,1.932204217E-1,-1.459621787E-1,9.932008743E0,9.934960330E0
3.515810473E0,2.123630047E-1,-1.220339537E-1,9.975079536E0,9.978086094E0
3.518360473E0,2.267199457E-1,-1.363908947E-1,9.941579819E0,9.945099985E0
3.520862557E0,2.075773627E-1,-1.124626622E-1,9.941579819E0,9.944382610E0
3.523377505E0,2.315055877E-1,-9.810572863E-2,9.960722923E0,9.963895861E0
3.525892453E0,2.027917206E-1,-1.028913707E-1,9.898509026E0,9.901120747E0
3.528394536E0,1.980060786E-1,-1.172483116E-1,9.936794281E0,9.939458444E0
3.530896619E0,2.267199457E-1,-7.896314561E-2,9.941579819E0,9.944478187E0
3.533398703E0,2.123630047E-1,-8.853443712E-2,9.932008743E0,9.934673325E0
3.535900786E0,2.219343036E-1,-1.363908947E-1,9.941579819E0,9.944992036E0
3.538402869E0,1.980060786E-1,-1.363908947E-1,9.893723488E0,9.896644549E0
3.540852869E0,2.362912297E-1,-9.810572863E-2,9.932008743E0,9.935303516E0
3.543302869E0,2.315055877E-1,-1.076770201E-1,9.912865639E0,9.916153203E0
3.545759067E0,2.219343036E-1,-1.172483116E-1,9.908080101E0,9.911258915E0
3.548215213E0,2.410768867E-1,-1.316052526E-1,9.903294563E0,9.907102564E0
3.550713338E0,2.075773627E-1,-1.555334777E-1,9.903294563E0,9.906690781E0
3.553211463E0,2.123630047E-1,-1.316052526E-1,9.874580383E0,9.877740416E0
3.555709536E0,1.788634956E-1,-1.411765367E-1,9.869794846E0,9.872424893E0
3.558207661E0,1.549352705E-1,-1.411765367E-1,9.893723488E0,9.895943624E0
3.560705734E0,1.884347796E-1,-1.507478207E-1,9.898509026E0,9.901450071E0
3.563204067E0,1.740778536E-1,-1.363908947E-1,9.893723488E0,9.896194725E0
3.565707765E0,1.692921966E-1,-1.459621787E-1,9.903294563E0,9.905816878E0
3.568211411E0,2.027917206E-1,-1.651047617E-1,9.888937950E0,9.892394950E0
3.570709744E0,1.932204217E-1,-1.172483116E-1,9.941579819E0,9.944148560E0
3.573208130E0,1.980060786E-1,-1.411765367E-1,9.884152412E0,9.887143477E0
3.575706463E0,1.453639716E-1,-1.794617027E-1,9.898509026E0,9.901202862E0
3.578204796E0,1.453639716E-1,-1.603191197E-1,9.893723488E0,9.896090004E0
3.580703130E0,1.549352705E-1,-1.890329868E-1,9.888937950E0,9.891957955E0
3.583201463E0,1.405783296E-1,-1.698904037E-1,9.884152412E0,9.886611853E0
3.585699796E0,1.357926875E-1,-1.698904037E-1,9.922437668E0,9.924820990E0
3.588198755E0,1.549352705E-1,-1.555334777E-1,9.908080101E0,9.910511939E0
3.590710838E0,1.357926875E-1,-1.459621787E-1,9.970293999E0,9.972286951E0
3.593222869E0,1.692921966E-1,-1.363908947E-1,9.960722923E0,9.963095075E0
3.595721828E0,1.310070455E-1,-1.268195957E-1,9.941579819E0,9.943251749E0
3.598220734E0,1.740778536E-1,-1.076770201E-1,9.941579819E0,9.943686778E0
3.600719692E0,1.692921966E-1,-1.172483116E-1,9.941579819E0,9.943712401E0
3.603218650E0,1.453639716E-1,-6.460621208E-2,9.917651176E0,9.918926832E0
3.605717557E0,2.171486616E-1,-9.810572863E-2,9.932008743E0,9.934866680E0
3.608216515E0,1.692921966E-1,-9.332008660E-2,9.946365356E0,9.948243679E0
3.610715421E0,1.788634956E-1,-1.124626622E-1,9.917651176E0,9.919901454E0
3.613262661E0,2.123630047E-1,-9.810572863E-2,9.927223206E0,9.929979021E0
3.615809953E0,1.788634956E-1,-1.172483116E-1,9.903294563E0,9.905603592E0
3.618357192E0,1.645065546E-1,-1.507478207E-1,9.917651176E0,9.920160894E0
3.620859223E0,1.645065546E-1,-1.268195957E-1,9.932008743E0,9.934180555E0
3.623361150E0,1.836491376E-1,-1.507478207E-1,9.941579819E0,9.944418596E0
3.625863182E0,1.836491376E-1,-1.746760458E-1,9.908080101E0,9.911321305E0
3.628365213E0,1.692921966E-1,-1.172483116E-1,9.893723488E0,9.895866383E0
3.630867244E0,2.123630047E-1,-1.124626622E-1,9.932008743E0,9.934915378E0
3.633369275E0,1.836491376E-1,-1.507478207E-1,9.912865639E0,9.915712636E0
3.635871255E0,1.836491376E-1,-1.698904037E-1,9.917651176E0,9.920806147E0
3.638321255E0,1.836491376E-1,-1.172483116E-1,9.922437668E0,9.924829643E0
3.640771255E0,1.980060786E-1,-1.220339537E-1,9.893723488E0,9.896457101E0
3.643221255E0,1.836491376E-1,-1.316052526E-1,9.917651176E0,9.920224383E0
3.645719692E0,2.123630047E-1,-1.220339537E-1,9.927223206E0,9.930244252E0
3.648197973E0,2.075773627E-1,-1.459621787E-1,9.936794281E0,9.940033898E0
3.650696411E0,1.932204217E-1,-1.220339537E-1,9.917651176E0,9.920283830E0
3.653194900E0,1.932204217E-1,-1.363908947E-1,9.912865639E0,9.915686652E0
3.655693338E0,1.501496136E-1,-9.810572863E-2,9.936794281E0,9.938412862E0
3.658191775E0,2.315055877E-1,-8.374879509E-2,9.932008743E0,9.935059455E0
3.660690213E0,2.458625287E-1,-1.363908947E-1,9.936794281E0,9.940771169E0
3.663188755E0,2.027917206E-1,-1.507478207E-1,9.922437668E0,9.925654571E0
3.665689953E0,1.836491376E-1,-1.363908947E-1,9.922437668E0,9.925074244E0
3.668191098E0,1.884347796E-1,-9.332008660E-2,9.946365356E0,9.948587845E0
3.670689640E0,1.501496136E-1,-1.076770201E-1,9.908080101E0,9.909802750E0
3.673188182E0,1.980060786E-1,-1.459621787E-1,9.917651176E0,9.920701398E0
3.675686723E0,1.740778536E-1,-1.172483116E-1,9.932008743E0,9.934226087E0
3.678185317E0,1.788634956E-1,-1.363908947E-1,9.903294563E0,9.905848668E0
3.680683859E0,2.027917206E-1,-1.124626622E-1,9.922437668E0,9.925146931E0
3.683182400E0,1.645065546E-1,-1.411765367E-1,9.951150894E0,9.953511809E0
3.685680994E0,1.692921966E-1,-1.220339537E-1,9.893723488E0,9.895924241E0
3.688180161E0,1.884347796E-1,-1.459621787E-1,9.893723488E0,9.896594216E0
3.690706671E0,1.597209126E-1,-1.316052526E-1,9.941579819E0,9.943733705E0
3.693205838E0,1.501496136E-1,-1.363908947E-1,9.932008743E0,9.934079981E0
3.695705005E0,1.884347796E-1,-1.316052526E-1,9.941579819E0,9.944236366E0
3.698204171E0,1.740778536E-1,-1.172483116E-1,9.941579819E0,9.943795028E0
3.700703338E0,2.075773627E-1,-1.507478207E-1,9.898509026E0,9.901832871E0
3.703202557E0,1.932204217E-1,-1.411765367E-1,9.936794281E0,9.939675323E0
3.705701723E0,1.932204217E-1,-1.411765367E-1,9.912865639E0,9.915753633E0
3.708200942E0,1.788634956E-1,-1.507478207E-1,9.946365356E0,9.949115582E0
3.710700109E0,1.836491376E-1,-1.124626622E-1,9.946365356E0,9.948696330E0
3.713199119E0,2.075773627E-1,-1.076770201E-1,9.917651176E0,9.920407631E0
3.715689692E0,1.788634956E-1,-1.268195957E-1,9.941579819E0,9.943997418E0
3.718188703E0,2.267199457E-1,-1.172483116E-1,9.946365356E0,9.949639838E0
3.720687661E0,2.075773627E-1,-1.268195957E-1,9.955936432E0,9.958907661E0
3.723186619E0,1.549352705E-1,-1.268195957E-1,9.941579819E0,9.943595800E0
3.725685630E0,1.932204217E-1,-1.076770201E-1,9.912865639E0,9.915333259E0
3.728184640E0,2.267199457E-1,-1.411765367E-1,9.903294563E0,9.906895374E0
3.730683650E0,1.836491376E-1,-1.459621787E-1,9.932008743E0,9.934778792E0
3.733182661E0,2.123630047E-1,-1.316052526E-1,9.903294563E0,9.906445437E0
3.735681619E0,1.549352705E-1,-1.268195957E-1,9.884152412E0,9.886180105E0
3.738180421E0,2.171486616E-1,-1.316052526E-1,9.922437668E0,9.925686009E0
3.740670161E0,2.171486616E-1,-1.411765367E-1,9.908080101E0,9.911464859E0
3.743168963E0,2.075773627E-1,-1.651047617E-1,9.932008743E0,9.935549588E0
3.745667713E0,1.788634956E-1,-1.316052526E-1,9.908080101E0,9.910568267E0
3.748166463E0,2.075773627E-1,-1.316052526E-1,9.927223206E0,9.930265297E0
3.750665265E0,1.836491376E-1,-1.603191197E-1,9.932008743E0,9.935000096E0
3.753164067E0,2.267199457E-1,-1.268195957E-1,9.927223206E0,9.930621618E0
3.755662869E0,2.027917206E-1,-1.220339537E-1,9.884152412E0,9.886985672E0
3.758161671E0,2.123630047E-1,-1.124626622E-1,9.898509026E0,9.901425495E0
3.760660473E0,1.788634956E-1,-1.459621787E-1,9.951150894E0,9.953828471E0
3.763159953E0,1.645065546E-1,-1.172483116E-1,9.917651176E0,9.919708384E0
3.765689692E0,2.075773627E-1,-1.172483116E-1,9.917651176E0,9.920516135E0
3.768189171E0,1.884347796E-1,-1.316052526E-1,9.946365356E0,9.949020626E0
3.770688598E0,1.357926875E-1,-1.124626622E-1,9.922437668E0,9.924004070E0
3.773188078E0,1.884347796E-1,-1.172483116E-1,9.912865639E0,9.915349717E0
3.775687609E0,1.980060786E-1,-1.316052526E-1,9.927223206E0,9.930069835E0
3.778187088E0,2.075773627E-1,-1.316052526E-1,9.888937950E0,9.891991816E0
3.780686567E0,1.692921966E-1,-1.363908947E-1,9.888937950E0,9.891327318E0
3.783186046E0,1.980060786E-1,-1.698904037E-1,9.927223206E0,9.930651022E0
3.785685525E0,1.836491376E-1,-1.555334777E-1,9.912865639E0,9.915786547E0
3.788184796E0,2.171486616E-1,-1.268195957E-1,9.927223206E0,9.930407712E0
3.790684067E0,2.027917206E-1,-1.268195957E-1,9.898509026E0,9.901398316E0
3.793183546E0,2.027917206E-1,-1.603191197E-1,9.912865639E0,9.916235771E0
3.795682921E0,1.549352705E-1,-1.555334777E-1,9.927223206E0,9.929650355E0
3.798182400E0,1.884347796E-1,-1.555334777E-1,9.912865639E0,9.915876335E0
3.800681880E0,1.740778536E-1,-1.651047617E-1,9.932008743E0,9.934906157E0
3.803181359E0,1.932204217E-1,-1.555334777E-1,9.884152412E0,9.887264217E0
3.805680838E0,1.932204217E-1,-1.507478207E-1,9.893723488E0,9.896758231E0
3.808180317E0,1.980060786E-1,-1.507478207E-1,9.888937950E0,9.892068797E0
3.810679380E0,1.788634956E-1,-1.507478207E-1,9.908080101E0,9.910840950E0
3.813169223E0,1.740778536E-1,-1.603191197E-1,9.917651176E0,9.920474292E0
3.815659067E0,2.171486616E-1,-1.268195957E-1,9.898509026E0,9.901702767E0
3.818158130E0,1.788634956E-1,-1.411765367E-1,9.922437668E0,9.925053765E0
3.820657140E0,2.123630047E-1,-1.220339537E-1,9.908080101E0,9.911106983E0
3.823156203E0,1.740778536E-1,-1.316052526E-1,9.946365356E0,9.948759061E0
3.825655265E0,2.171486616E-1,-1.220339537E-1,9.951150894E0,9.954267926E0
3.828154328E0,2.027917206E-1,-8.374879509E-2,9.884152412E0,9.886587240E0
3.830653390E0,1.932204217E-1,-1.363908947E-1,9.955936432E0,9.958745244E0
3.833152453E0,1.692921966E-1,-1.459621787E-1,9.898509026E0,9.901032559E0
3.835702453E0,1.645065546E-1,-1.172483116E-1,9.869794846E0,9.871862026E0
3.838252453E0,1.980060786E-1,-1.172483116E-1,9.912865639E0,9.915536231E0
3.840802453E0,1.836491376E-1,-1.363908947E-1,9.859625816E0,9.862279185E0
3.843304848E0,1.836491376E-1,-1.220339537E-1,9.884152412E0,9.886611563E0
3.845814796E0,1.740778536E-1,-1.411765367E-1,9.898509026E0,9.901046149E0
3.848317192E0,2.075773627E-1,-1.651047617E-1,9.917651176E0,9.921197146E0
3.850819640E0,1.884347796E-1,-1.459621787E-1,9.932008743E0,9.934868409E0
3.853322036E0,1.549352705E-1,-1.316052526E-1,9.932008743E0,9.934088914E0
3.855824432E0,1.884347796E-1,-1.363908947E-1,9.927223206E0,9.929948173E0
3.858326828E0,2.123630047E-1,-1.316052526E-1,9.932008743E0,9.935150510E0
3.860776828E0,1.597209126E-1,-1.363908947E-1,9.941579819E0,9.943798195E0
3.863226828E0,1.597209126E-1,-1.459621787E-1,9.903294563E0,9.905657925E0
3.865697661E0,1.788634956E-1,-1.316052526E-1,9.859625816E0,9.862126207E0
3.868168494E0,1.884347796E-1,-1.507478207E-1,9.898509026E0,9.901450071E0
3.870639275E0,1.884347796E-1,-1.507478207E-1,9.908080101E0,9.911018306E0
3.873137713E0,1.788634956E-1,-1.220339537E-1,9.903294563E0,9.905661394E0
3.875636150E0,1.740778536E-1,-1.268195957E-1,9.908080101E0,9.910420657E0
3.878134588E0,1.980060786E-1,-1.220339537E-1,9.898509026E0,9.901241317E0
3.880633078E0,1.932204217E-1,-1.124626622E-1,9.912865639E0,9.915386384E0
3.883131515E0,1.884347796E-1,-1.603191197E-1,9.927223206E0,9.930305658E0
3.885630421E0,1.692921966E-1,-1.411765367E-1,9.932008743E0,9.934454607E0
3.888149275E0,1.740778536E-1,-1.363908947E-1,9.898509026E0,9.900979068E0
3.890648182E0,2.410768867E-1,-1.411765367E-1,9.888937950E0,9.892883435E0
3.893147036E0,1.980060786E-1,-1.268195957E-1,9.946365356E0,9.949144356E0
3.895645838E0,2.027917206E-1,-1.411765367E-1,9.922437668E0,9.925513819E0
3.898144744E0,1.932204217E-1,-1.076770201E-1,9.908080101E0,9.910548913E0
3.900643650E0,1.980060786E-1,-9.810572863E-2,9.874580383E0,9.877052642E0
3.903142557E0,1.884347796E-1,-1.220339537E-1,9.898509026E0,9.901054534E0
3.905641463E0,1.740778536E-1,-1.603191197E-1,9.912865639E0,9.915690117E0
3.908140317E0,1.740778536E-1,-1.411765367E-1,9.936794281E0,9.939321632E0
3.910639223E0,1.692921966E-1,-1.124626622E-1,9.903294563E0,9.905379897E0
3.913138390E0,2.219343036E-1,-1.698904037E-1,9.845269203E0,9.849235669E0
3.915637296E0,1.884347796E-1,-1.411765367E-1,9.922437668E0,9.925230866E0
3.918136150E0,1.980060786E-1,-1.172483116E-1,9.917651176E0,9.920320480E0
3.920635005E0,1.884347796E-1,-1.459621787E-1,9.941579819E0,9.944436732E0
3.923133911E0,1.788634956E-1,-1.172483116E-1,9.908080101E0,9.910388015E0
3.925632817E0,2.075773627E-1,-1.603191197E-1,9.908080101E0,9.911550932E0
3.928131723E0,1.884347796E-1,-1.316052526E-1,9.888937950E0,9.891608635E0
3.930630630E0,1.788634956E-1,-1.220339537E-1,9.917651176E0,9.920014581E0
3.933129484E0,1.980060786E-1,-1.411765367E-1,9.922437668E0,9.925417195E0
3.935679484E0,1.836491376E-1,-1.220339537E-1,9.936794281E0,9.939240407E0
3.938229484E0,1.884347796E-1,-1.363908947E-1,9.893723488E0,9.896457679E0
3.940753494E0,2.075773627E-1,-1.555334777E-1,9.903294563E0,9.906690781E0
3.943277505E0,1.692921966E-1,-1.363908947E-1,9.917651176E0,9.920033628E0
3.945801463E0,2.267199457E-1,-1.316052526E-1,9.917651176E0,9.921115196E0
3.948303963E0,1.788634956E-1,-1.268195957E-1,9.917651176E0,9.920074607E0
3.950806515E0,1.884347796E-1,-1.459621787E-1,9.932008743E0,9.934868409E0
3.953309015E0,2.027917206E-1,-1.172483116E-1,9.922437668E0,9.925202311E0
3.955811567E0,1.836491376E-1,-1.363908947E-1,9.927223206E0,9.929858511E0
3.958313598E0,1.980060786E-1,-1.076770201E-1,9.908080101E0,9.910643371E0
3.960805317E0,1.884347796E-1,-1.459621787E-1,9.922437668E0,9.925300091E0
3.963296984E0,1.932204217E-1,-1.555334777E-1,9.879366875E0,9.882480187E0
3.965799015E0,2.171486616E-1,-1.698904037E-1,9.932008743E0,9.935834840E0
3.968301046E0,1.692921966E-1,-1.363908947E-1,9.912865639E0,9.915249240E0
3.970803078E0,2.075773627E-1,-1.268195957E-1,9.908080101E0,9.911065677E0
3.973305161E0,2.267199457E-1,-1.459621787E-1,9.922437668E0,9.926100753E0
3.975807192E0,1.597209126E-1,-1.028913707E-1,9.951150894E0,9.952964459E0
3.978309223E0,2.075773627E-1,-9.810572863E-2,9.912865639E0,9.915524105E0
3.980811307E0,1.405783296E-1,-1.555334777E-1,9.917651176E0,9.919866823E0
3.983261307E0,2.219343036E-1,-1.459621787E-1,9.922437668E0,9.925992598E0
3.985711307E0,1.836491376E-1,-1.555334777E-1,9.927223206E0,9.930139890E0
3.988161307E0,1.980060786E-1,-1.220339537E-1,9.922437668E0,9.925163372E0
3.990659223E0,1.980060786E-1,-1.172483116E-1,9.917651176E0,9.920320480E0
3.993112869E0,1.884347796E-1,-1.411765367E-1,9.884152412E0,9.886956427E0
3.995610786E0,1.884347796E-1,-1.411765367E-1,9.898509026E0,9.901308975E0
3.998108703E0,1.836491376E-1,-1.316052526E-1,9.879366875E0,9.881950050E0
4.000606619E0,1.884347796E-1,-1.268195957E-1,9.884152412E0,9.886761845E0
4.003104536E0,1.740778536E-1,-1.316052526E-1,9.927223206E0,9.929621524E0
4.005602453E0,2.123630047E-1,-1.316052526E-1,9.908080101E0,9.911229453E0
4.008100994E0,1.932204217E-1,-1.316052526E-1,9.912865639E0,9.915621980E0
4.010613025E0,2.027917206E-1,-1.363908947E-1,9.941579819E0,9.944583262E0
4.013125057E0,2.315055877E-1,-1.555334777E-1,9.936794281E0,9.940707524E0
4.015623598E0,1.836491376E-1,-1.316052526E-1,9.884152412E0,9.886734337E0
4.018122088E0,1.788634956E-1,-1.316052526E-1,9.893723488E0,9.896215264E0
4.020620630E0,2.027917206E-1,-1.268195957E-1,9.908080101E0,9.910966602E0
4.023119223E0,1.788634956E-1,-1.459621787E-1,9.893723488E0,9.896416602E0
4.025617765E0,1.932204217E-1,-1.268195957E-1,9.874580383E0,9.877284803E0
4.028116307E0,1.453639716E-1,-1.316052526E-1,9.922437668E0,9.924375038E0
4.030614848E0,2.123630047E-1,-1.268195957E-1,9.898509026E0,9.901598971E0
4.033113338E0,1.836491376E-1,-1.555334777E-1,9.893723488E0,9.896650045E0
4.035610369E0,1.884347796E-1,-1.411765367E-1,9.946365356E0,9.949151837E0
4.038108859E0,1.788634956E-1,-1.651047617E-1,9.922437668E0,9.925422964E0
4.040607348E0,2.123630047E-1,-1.603191197E-1,9.908080101E0,9.911652312E0
4.043105838E0,1.692921966E-1,-1.268195957E-1,9.908080101E0,9.910337751E0
4.045604328E0,2.027917206E-1,-1.268195957E-1,9.884152412E0,9.887045899E0
4.048102869E0,1.645065546E-1,-1.411765367E-1,9.955936432E0,9.958296213E0
4.050601411E0,2.123630047E-1,-1.316052526E-1,9.955936432E0,9.959070651E0
4.053099900E0,2.267199457E-1,-1.459621787E-1,9.908080101E0,9.911748493E0
4.055598390E0,2.027917206E-1,-1.411765367E-1,9.903294563E0,9.906376659E0
4.058097088E0,2.075773627E-1,-1.507478207E-1,9.946365356E0,9.949673214E0
4.060600161E0,2.123630047E-1,-1.746760458E-1,9.932008743E0,9.935814382E0
4.063103182E0,2.027917206E-1,-1.459621787E-1,9.946365356E0,9.949503166E0
4.065601880E0,2.410768867E-1,-1.268195957E-1,9.898509026E0,9.902256420E0
4.068100525E0,1.980060786E-1,-1.603191197E-1,9.927223206E0,9.930491891E0
4.070599223E0,2.410768867E-1,-1.172483116E-1,9.922437668E0,9.926058357E0
4.073097921E0,2.075773627E-1,-1.746760458E-1,9.908080101E0,9.911793550E0
4.075596619E0,1.405783296E-1,-1.603191197E-1,9.874580383E0,9.876882212E0
4.078095317E0,2.123630047E-1,-1.651047617E-1,9.787840843E0,9.791536447E0
4.080594015E0,2.027917206E-1,-1.268195957E-1,9.816555023E0,9.819468428E0
4.083092557E0,2.315055877E-1,-1.459621787E-1,9.884152412E0,9.887940570E0
4.085585005E0,1.740778536E-1,-1.411765367E-1,9.936794281E0,9.939321632E0
4.088083546E0,2.027917206E-1,-1.268195957E-1,9.903294563E0,9.906182458E0
4.090582140E0,1.549352705E-1,-1.698904037E-1,9.893723488E0,9.896394906E0
4.093080682E0,1.884347796E-1,-1.411765367E-1,9.893723488E0,9.896524791E0
4.095579223E0,1.788634956E-1,-1.124626622E-1,9.888937950E0,9.891194760E0
4.098077817E0,1.788634956E-1,-1.220339537E-1,9.884152412E0,9.886523825E0
4.100576359E0,2.027917206E-1,-1.411765367E-1,9.893723488E0,9.896808564E0
4.103074900E0,1.740778536E-1,-1.507478207E-1,9.922437668E0,9.925109434E0
4.105573442E0,1.692921966E-1,-9.810572863E-2,9.893723488E0,9.895658090E0
4.108072192E0,2.219343036E-1,-1.268195957E-1,9.965508461E0,9.968786131E0
4.110579692E0,1.932204217E-1,-8.853443712E-2,9.908080101E0,9.910359417E0
4.113078442E0,1.980060786E-1,-1.746760458E-1,9.946365356E0,9.949869443E0
4.115577192E0,1.932204217E-1,-1.411765367E-1,9.884152412E0,9.887048794E0
4.118075890E0,2.027917206E-1,-1.651047617E-1,9.888937950E0,9.892394950E0
